ExperimentName	Subject	Session	Chopstick	Clock.Information	DataFile.Basename	Display.RefreshRate	ExperimentVersion	FeliceNeutro[Session]	Group	Handedness	IstruzioniBlocchi.DurationError	IstruzioniBlocchi.OnsetDelay	IstruzioniBlocchi.OnsetTime	IstruzioniBlocchi.OnsetToOnsetTime	Lenti	RandomSeed	RuntimeCapabilities	RuntimeVersion	RuntimeVersionExpected	SessionDate	SessionStartDateTimeUtc	SessionTime	Sex	StudioVersion	Welcome.DurationError	Welcome.OnsetDelay	Welcome.OnsetTime	Welcome.OnsetToOnsetTime	Block	Istruzionitraining1.ACC	Istruzionitraining1.CRESP	Istruzionitraining1.DurationError	Istruzionitraining1.OnsetDelay	Istruzionitraining1.OnsetTime	Istruzionitraining1.OnsetToOnsetTime	Istruzionitraining1.RESP	Istruzionitraining1.RT	Istruzionitraining1.RTTime	Procedure[Block]	Running[Block]	TrainingBlocklist	TrainingBlocklist.Cycle	TrainingBlocklist.Sample	Valutation	Valutation.Cycle	Valutation.Sample	XPBlocklist	XPBlocklist.Cycle	XPBlocklist.Sample	XpBlocklist2	XpBlocklist2.Cycle	XpBlocklist2.Sample	Trial	ArouImage.RESP	Arousalproc	Arousalproc.Cycle	Arousalproc.Sample	b	Categoria	COLORE1	ColoreB	ColoreM	FeliceNeutro[Trial]	FeliceNeutro.Cycle	FeliceNeutro.Sample	KeyPress10RESP	KeyPress10RT	KeyPress11RESP	KeyPress11RT	KeyPress12RESP	KeyPress12RT	KeyPress13RESP	KeyPress13RT	KeyPress14RESP	KeyPress14RT	KeyPress15RESP	KeyPress15RT	KeyPress16RESP	KeyPress16RT	KeyPress17RESP	KeyPress17RT	KeyPress18RESP	KeyPress18RT	KeyPress19RESP	KeyPress19RT	KeyPress1RESP	KeyPress1RT	KeyPress20RESP	KeyPress20RT	KeyPress2RESP	KeyPress2RT	KeyPress3RESP	KeyPress3RT	KeyPress4RESP	KeyPress4RT	KeyPress5RESP	KeyPress5RT	KeyPress6RESP	KeyPress6RT	KeyPress7RESP	KeyPress7RT	KeyPress8RESP	KeyPress8RT	KeyPress9RESP	KeyPress9RT	m	NeutroFelice	NeutroFelice.Cycle	NeutroFelice.Sample	Procedure[Trial]	Provalist	Provalist.Cycle	Provalist.Sample	Running[Trial]	TAG	TAG1	Trialblocklist	Trialblocklist.Cycle	Trialblocklist.Sample	ValImage.RESP	Valtrialproc	Valtrialproc.Cycle	Valtrialproc.Sample
qualiamotion pilot	1	1	YES	<?xml version="1.0"?>\n<Clock xmlns:dt="urn:schemas-microsoft-com:datatypes"><Description dt:dt="string">E-Prime Primary Realtime Clock</Description><StartTime><Timestamp dt:dt="int">0</Timestamp><DateUtc dt:dt="string">2021-06-15T13:29:28Z</DateUtc></StartTime><FrequencyChanges><FrequencyChange><Frequency dt:dt="r8">3117968</Frequency><Timestamp dt:dt="r8">26963278924</Timestamp><Current dt:dt="r8">0</Current><DateUtc dt:dt="string">2021-06-15T13:29:28Z</DateUtc></FrequencyChange></FrequencyChanges></Clock>\n	qualiamotion pilot-1-1	84.909	1.0.0.518	F	1	right	-999999	352152	352152	0	VR	1194103754	Professional	2.0.10.356	2.0.10.356	06-15-2021	15/06/2021 13:29:28	15:29:28	female	2.0.10.252	-999999	18	351021	0	1	0		-999999	24	47613	0	1	56681	104294	TrainingProc	TrainingBlocklist	1	1	1										1						1	ROSSO			F																																															trainingtriallist				Trialblocklist	R_N1.png	NEUTRO	3	1	1				
qualiamotion pilot	1	1	YES	<?xml version="1.0"?>\n<Clock xmlns:dt="urn:schemas-microsoft-com:datatypes"><Description dt:dt="string">E-Prime Primary Realtime Clock</Description><StartTime><Timestamp dt:dt="int">0</Timestamp><DateUtc dt:dt="string">2021-06-15T13:29:28Z</DateUtc></StartTime><FrequencyChanges><FrequencyChange><Frequency dt:dt="r8">3117968</Frequency><Timestamp dt:dt="r8">26963278924</Timestamp><Current dt:dt="r8">0</Current><DateUtc dt:dt="string">2021-06-15T13:29:28Z</DateUtc></FrequencyChange></FrequencyChanges></Clock>\n	qualiamotion pilot-1-1	84.909	1.0.0.518	F	1	right	-999999	352152	352152	0	VR	1194103754	Professional	2.0.10.356	2.0.10.356	06-15-2021	15/06/2021 13:29:28	15:29:28	female	2.0.10.252	-999999	18	351021	0	1	0		-999999	24	47613	0	1	56681	104294	TrainingProc	TrainingBlocklist	1	1	1										2						2	VERDE			F																																															trainingtriallist				Trialblocklist	V_N2.png	NEUTRO	8	1	2				
qualiamotion pilot	1	1	YES	<?xml version="1.0"?>\n<Clock xmlns:dt="urn:schemas-microsoft-com:datatypes"><Description dt:dt="string">E-Prime Primary Realtime Clock</Description><StartTime><Timestamp dt:dt="int">0</Timestamp><DateUtc dt:dt="string">2021-06-15T13:29:28Z</DateUtc></StartTime><FrequencyChanges><FrequencyChange><Frequency dt:dt="r8">3117968</Frequency><Timestamp dt:dt="r8">26963278924</Timestamp><Current dt:dt="r8">0</Current><DateUtc dt:dt="string">2021-06-15T13:29:28Z</DateUtc></FrequencyChange></FrequencyChanges></Clock>\n	qualiamotion pilot-1-1	84.909	1.0.0.518	F	1	right	-999999	352152	352152	0	VR	1194103754	Professional	2.0.10.356	2.0.10.356	06-15-2021	15/06/2021 13:29:28	15:29:28	female	2.0.10.252	-999999	18	351021	0	1	0		-999999	24	47613	0	1	56681	104294	TrainingProc	TrainingBlocklist	1	1	1										3						1	VERDE			F																																															trainingtriallist				Trialblocklist	V_N1.png	NEUTRO	7	1	3				
qualiamotion pilot	1	1	YES	<?xml version="1.0"?>\n<Clock xmlns:dt="urn:schemas-microsoft-com:datatypes"><Description dt:dt="string">E-Prime Primary Realtime Clock</Description><StartTime><Timestamp dt:dt="int">0</Timestamp><DateUtc dt:dt="string">2021-06-15T13:29:28Z</DateUtc></StartTime><FrequencyChanges><FrequencyChange><Frequency dt:dt="r8">3117968</Frequency><Timestamp dt:dt="r8">26963278924</Timestamp><Current dt:dt="r8">0</Current><DateUtc dt:dt="string">2021-06-15T13:29:28Z</DateUtc></FrequencyChange></FrequencyChanges></Clock>\n	qualiamotion pilot-1-1	84.909	1.0.0.518	F	1	right	-999999	352152	352152	0	VR	1194103754	Professional	2.0.10.356	2.0.10.356	06-15-2021	15/06/2021 13:29:28	15:29:28	female	2.0.10.252	-999999	18	351021	0	1	0		-999999	24	47613	0	1	56681	104294	TrainingProc	TrainingBlocklist	1	1	1										4						1	ROSSO			F																																															trainingtriallist				Trialblocklist	R_F1.png	FELICE	1	1	4				
qualiamotion pilot	1	1	YES	<?xml version="1.0"?>\n<Clock xmlns:dt="urn:schemas-microsoft-com:datatypes"><Description dt:dt="string">E-Prime Primary Realtime Clock</Description><StartTime><Timestamp dt:dt="int">0</Timestamp><DateUtc dt:dt="string">2021-06-15T13:29:28Z</DateUtc></StartTime><FrequencyChanges><FrequencyChange><Frequency dt:dt="r8">3117968</Frequency><Timestamp dt:dt="r8">26963278924</Timestamp><Current dt:dt="r8">0</Current><DateUtc dt:dt="string">2021-06-15T13:29:28Z</DateUtc></FrequencyChange></FrequencyChanges></Clock>\n	qualiamotion pilot-1-1	84.909	1.0.0.518	F	1	right	-999999	352152	352152	0	VR	1194103754	Professional	2.0.10.356	2.0.10.356	06-15-2021	15/06/2021 13:29:28	15:29:28	female	2.0.10.252	-999999	18	351021	0	1	0		-999999	24	47613	0	1	56681	104294	TrainingProc	TrainingBlocklist	1	1	1										5						2	VERDE			F																																															trainingtriallist				Trialblocklist	V_F2.png	FELICE	6	1	5				
qualiamotion pilot	1	1	YES	<?xml version="1.0"?>\n<Clock xmlns:dt="urn:schemas-microsoft-com:datatypes"><Description dt:dt="string">E-Prime Primary Realtime Clock</Description><StartTime><Timestamp dt:dt="int">0</Timestamp><DateUtc dt:dt="string">2021-06-15T13:29:28Z</DateUtc></StartTime><FrequencyChanges><FrequencyChange><Frequency dt:dt="r8">3117968</Frequency><Timestamp dt:dt="r8">26963278924</Timestamp><Current dt:dt="r8">0</Current><DateUtc dt:dt="string">2021-06-15T13:29:28Z</DateUtc></FrequencyChange></FrequencyChanges></Clock>\n	qualiamotion pilot-1-1	84.909	1.0.0.518	F	1	right	-999999	352152	352152	0	VR	1194103754	Professional	2.0.10.356	2.0.10.356	06-15-2021	15/06/2021 13:29:28	15:29:28	female	2.0.10.252	-999999	18	351021	0	1	0		-999999	24	47613	0	1	56681	104294	TrainingProc	TrainingBlocklist	1	1	1										6						1	VERDE			F																																															trainingtriallist				Trialblocklist	V_F1.png	FELICE	5	1	6				
qualiamotion pilot	1	1	YES	<?xml version="1.0"?>\n<Clock xmlns:dt="urn:schemas-microsoft-com:datatypes"><Description dt:dt="string">E-Prime Primary Realtime Clock</Description><StartTime><Timestamp dt:dt="int">0</Timestamp><DateUtc dt:dt="string">2021-06-15T13:29:28Z</DateUtc></StartTime><FrequencyChanges><FrequencyChange><Frequency dt:dt="r8">3117968</Frequency><Timestamp dt:dt="r8">26963278924</Timestamp><Current dt:dt="r8">0</Current><DateUtc dt:dt="string">2021-06-15T13:29:28Z</DateUtc></FrequencyChange></FrequencyChanges></Clock>\n	qualiamotion pilot-1-1	84.909	1.0.0.518	F	1	right	-999999	352152	352152	0	VR	1194103754	Professional	2.0.10.356	2.0.10.356	06-15-2021	15/06/2021 13:29:28	15:29:28	female	2.0.10.252	-999999	18	351021	0	1	0		-999999	24	47613	0	1	56681	104294	TrainingProc	TrainingBlocklist	1	1	1										7						2	ROSSO			F																																															trainingtriallist				Trialblocklist	R_F2.png	FELICE	2	1	7				
qualiamotion pilot	1	1	YES	<?xml version="1.0"?>\n<Clock xmlns:dt="urn:schemas-microsoft-com:datatypes"><Description dt:dt="string">E-Prime Primary Realtime Clock</Description><StartTime><Timestamp dt:dt="int">0</Timestamp><DateUtc dt:dt="string">2021-06-15T13:29:28Z</DateUtc></StartTime><FrequencyChanges><FrequencyChange><Frequency dt:dt="r8">3117968</Frequency><Timestamp dt:dt="r8">26963278924</Timestamp><Current dt:dt="r8">0</Current><DateUtc dt:dt="string">2021-06-15T13:29:28Z</DateUtc></FrequencyChange></FrequencyChanges></Clock>\n	qualiamotion pilot-1-1	84.909	1.0.0.518	F	1	right	-999999	352152	352152	0	VR	1194103754	Professional	2.0.10.356	2.0.10.356	06-15-2021	15/06/2021 13:29:28	15:29:28	female	2.0.10.252	-999999	18	351021	0	1	0		-999999	24	47613	0	1	56681	104294	TrainingProc	TrainingBlocklist	1	1	1										8						2	ROSSO			F																																															trainingtriallist				Trialblocklist	R_N2.png	NEUTRO	4	1	8				
qualiamotion pilot	1	1	YES	<?xml version="1.0"?>\n<Clock xmlns:dt="urn:schemas-microsoft-com:datatypes"><Description dt:dt="string">E-Prime Primary Realtime Clock</Description><StartTime><Timestamp dt:dt="int">0</Timestamp><DateUtc dt:dt="string">2021-06-15T13:29:28Z</DateUtc></StartTime><FrequencyChanges><FrequencyChange><Frequency dt:dt="r8">3117968</Frequency><Timestamp dt:dt="r8">26963278924</Timestamp><Current dt:dt="r8">0</Current><DateUtc dt:dt="string">2021-06-15T13:29:28Z</DateUtc></FrequencyChange></FrequencyChanges></Clock>\n	qualiamotion pilot-1-1	84.909	1.0.0.518	F	1	right	-999999	352152	352152	0	VR	1194103754	Professional	2.0.10.356	2.0.10.356	06-15-2021	15/06/2021 13:29:28	15:29:28	female	2.0.10.252	-999999	18	351021	0	1	0		-999999	24	47613	0	1	56681	104294	TrainingProc	TrainingBlocklist	1	1	1										9										F																																															Triningrivalry	1	1	1	Provalist	VR_BV.png								
qualiamotion pilot	1	1	YES	<?xml version="1.0"?>\n<Clock xmlns:dt="urn:schemas-microsoft-com:datatypes"><Description dt:dt="string">E-Prime Primary Realtime Clock</Description><StartTime><Timestamp dt:dt="int">0</Timestamp><DateUtc dt:dt="string">2021-06-15T13:29:28Z</DateUtc></StartTime><FrequencyChanges><FrequencyChange><Frequency dt:dt="r8">3117968</Frequency><Timestamp dt:dt="r8">26963278924</Timestamp><Current dt:dt="r8">0</Current><DateUtc dt:dt="string">2021-06-15T13:29:28Z</DateUtc></FrequencyChange></FrequencyChanges></Clock>\n	qualiamotion pilot-1-1	84.909	1.0.0.518	F	1	right	-999999	352152	352152	0	VR	1194103754	Professional	2.0.10.356	2.0.10.356	06-15-2021	15/06/2021 13:29:28	15:29:28	female	2.0.10.252	-999999	18	351021	0	2										blockproc	XPBlocklist							1	1	1				1					FELICE	2		ROSSO	VERDE	3	1	1																					b	1188																			NEUTRO				FeliceNeutroProc				FeliceNeutro	VR_NF_2.png								
qualiamotion pilot	1	1	YES	<?xml version="1.0"?>\n<Clock xmlns:dt="urn:schemas-microsoft-com:datatypes"><Description dt:dt="string">E-Prime Primary Realtime Clock</Description><StartTime><Timestamp dt:dt="int">0</Timestamp><DateUtc dt:dt="string">2021-06-15T13:29:28Z</DateUtc></StartTime><FrequencyChanges><FrequencyChange><Frequency dt:dt="r8">3117968</Frequency><Timestamp dt:dt="r8">26963278924</Timestamp><Current dt:dt="r8">0</Current><DateUtc dt:dt="string">2021-06-15T13:29:28Z</DateUtc></FrequencyChange></FrequencyChanges></Clock>\n	qualiamotion pilot-1-1	84.909	1.0.0.518	F	1	right	-999999	352152	352152	0	VR	1194103754	Professional	2.0.10.356	2.0.10.356	06-15-2021	15/06/2021 13:29:28	15:29:28	female	2.0.10.252	-999999	18	351021	0	2										blockproc	XPBlocklist							1	1	1				2					FELICE	2		VERDE	ROSSO	4	1	2																					m	2107			n	13274															NEUTRO				FeliceNeutroProc				FeliceNeutro	RV_NF_2.png								
qualiamotion pilot	1	1	YES	<?xml version="1.0"?>\n<Clock xmlns:dt="urn:schemas-microsoft-com:datatypes"><Description dt:dt="string">E-Prime Primary Realtime Clock</Description><StartTime><Timestamp dt:dt="int">0</Timestamp><DateUtc dt:dt="string">2021-06-15T13:29:28Z</DateUtc></StartTime><FrequencyChanges><FrequencyChange><Frequency dt:dt="r8">3117968</Frequency><Timestamp dt:dt="r8">26963278924</Timestamp><Current dt:dt="r8">0</Current><DateUtc dt:dt="string">2021-06-15T13:29:28Z</DateUtc></FrequencyChange></FrequencyChanges></Clock>\n	qualiamotion pilot-1-1	84.909	1.0.0.518	F	1	right	-999999	352152	352152	0	VR	1194103754	Professional	2.0.10.356	2.0.10.356	06-15-2021	15/06/2021 13:29:28	15:29:28	female	2.0.10.252	-999999	18	351021	0	2										blockproc	XPBlocklist							1	1	1				3					FELICE	1		VERDE	ROSSO	2	1	3																					m	1149																			NEUTRO				FeliceNeutroProc				FeliceNeutro	RV_NF_1.png								
qualiamotion pilot	1	1	YES	<?xml version="1.0"?>\n<Clock xmlns:dt="urn:schemas-microsoft-com:datatypes"><Description dt:dt="string">E-Prime Primary Realtime Clock</Description><StartTime><Timestamp dt:dt="int">0</Timestamp><DateUtc dt:dt="string">2021-06-15T13:29:28Z</DateUtc></StartTime><FrequencyChanges><FrequencyChange><Frequency dt:dt="r8">3117968</Frequency><Timestamp dt:dt="r8">26963278924</Timestamp><Current dt:dt="r8">0</Current><DateUtc dt:dt="string">2021-06-15T13:29:28Z</DateUtc></FrequencyChange></FrequencyChanges></Clock>\n	qualiamotion pilot-1-1	84.909	1.0.0.518	F	1	right	-999999	352152	352152	0	VR	1194103754	Professional	2.0.10.356	2.0.10.356	06-15-2021	15/06/2021 13:29:28	15:29:28	female	2.0.10.252	-999999	18	351021	0	2										blockproc	XPBlocklist							1	1	1				4					FELICE	1		ROSSO	VERDE	1	1	4																					b	747																			NEUTRO				FeliceNeutroProc				FeliceNeutro	VR_NF_1.png								
qualiamotion pilot	1	1	YES	<?xml version="1.0"?>\n<Clock xmlns:dt="urn:schemas-microsoft-com:datatypes"><Description dt:dt="string">E-Prime Primary Realtime Clock</Description><StartTime><Timestamp dt:dt="int">0</Timestamp><DateUtc dt:dt="string">2021-06-15T13:29:28Z</DateUtc></StartTime><FrequencyChanges><FrequencyChange><Frequency dt:dt="r8">3117968</Frequency><Timestamp dt:dt="r8">26963278924</Timestamp><Current dt:dt="r8">0</Current><DateUtc dt:dt="string">2021-06-15T13:29:28Z</DateUtc></FrequencyChange></FrequencyChanges></Clock>\n	qualiamotion pilot-1-1	84.909	1.0.0.518	F	1	right	-999999	352152	352152	0	VR	1194103754	Professional	2.0.10.356	2.0.10.356	06-15-2021	15/06/2021 13:29:28	15:29:28	female	2.0.10.252	-999999	18	351021	0	2										blockproc	XPBlocklist							1	1	1				5					FELICE	1		VERDE	ROSSO	2	2	5																					m	889																			NEUTRO				FeliceNeutroProc				FeliceNeutro	RV_NF_1.png								
qualiamotion pilot	1	1	YES	<?xml version="1.0"?>\n<Clock xmlns:dt="urn:schemas-microsoft-com:datatypes"><Description dt:dt="string">E-Prime Primary Realtime Clock</Description><StartTime><Timestamp dt:dt="int">0</Timestamp><DateUtc dt:dt="string">2021-06-15T13:29:28Z</DateUtc></StartTime><FrequencyChanges><FrequencyChange><Frequency dt:dt="r8">3117968</Frequency><Timestamp dt:dt="r8">26963278924</Timestamp><Current dt:dt="r8">0</Current><DateUtc dt:dt="string">2021-06-15T13:29:28Z</DateUtc></FrequencyChange></FrequencyChanges></Clock>\n	qualiamotion pilot-1-1	84.909	1.0.0.518	F	1	right	-999999	352152	352152	0	VR	1194103754	Professional	2.0.10.356	2.0.10.356	06-15-2021	15/06/2021 13:29:28	15:29:28	female	2.0.10.252	-999999	18	351021	0	2										blockproc	XPBlocklist							1	1	1				6					FELICE	2		ROSSO	VERDE	3	2	6																					b	919																			NEUTRO				FeliceNeutroProc				FeliceNeutro	VR_NF_2.png								
qualiamotion pilot	1	1	YES	<?xml version="1.0"?>\n<Clock xmlns:dt="urn:schemas-microsoft-com:datatypes"><Description dt:dt="string">E-Prime Primary Realtime Clock</Description><StartTime><Timestamp dt:dt="int">0</Timestamp><DateUtc dt:dt="string">2021-06-15T13:29:28Z</DateUtc></StartTime><FrequencyChanges><FrequencyChange><Frequency dt:dt="r8">3117968</Frequency><Timestamp dt:dt="r8">26963278924</Timestamp><Current dt:dt="r8">0</Current><DateUtc dt:dt="string">2021-06-15T13:29:28Z</DateUtc></FrequencyChange></FrequencyChanges></Clock>\n	qualiamotion pilot-1-1	84.909	1.0.0.518	F	1	right	-999999	352152	352152	0	VR	1194103754	Professional	2.0.10.356	2.0.10.356	06-15-2021	15/06/2021 13:29:28	15:29:28	female	2.0.10.252	-999999	18	351021	0	2										blockproc	XPBlocklist							1	1	1				7					FELICE	2		VERDE	ROSSO	4	2	7																					m	1110																			NEUTRO				FeliceNeutroProc				FeliceNeutro	RV_NF_2.png								
qualiamotion pilot	1	1	YES	<?xml version="1.0"?>\n<Clock xmlns:dt="urn:schemas-microsoft-com:datatypes"><Description dt:dt="string">E-Prime Primary Realtime Clock</Description><StartTime><Timestamp dt:dt="int">0</Timestamp><DateUtc dt:dt="string">2021-06-15T13:29:28Z</DateUtc></StartTime><FrequencyChanges><FrequencyChange><Frequency dt:dt="r8">3117968</Frequency><Timestamp dt:dt="r8">26963278924</Timestamp><Current dt:dt="r8">0</Current><DateUtc dt:dt="string">2021-06-15T13:29:28Z</DateUtc></FrequencyChange></FrequencyChanges></Clock>\n	qualiamotion pilot-1-1	84.909	1.0.0.518	F	1	right	-999999	352152	352152	0	VR	1194103754	Professional	2.0.10.356	2.0.10.356	06-15-2021	15/06/2021 13:29:28	15:29:28	female	2.0.10.252	-999999	18	351021	0	2										blockproc	XPBlocklist							1	1	1				8					FELICE	1		ROSSO	VERDE	1	2	8																					b	1563																			NEUTRO				FeliceNeutroProc				FeliceNeutro	VR_NF_1.png								
qualiamotion pilot	1	1	YES	<?xml version="1.0"?>\n<Clock xmlns:dt="urn:schemas-microsoft-com:datatypes"><Description dt:dt="string">E-Prime Primary Realtime Clock</Description><StartTime><Timestamp dt:dt="int">0</Timestamp><DateUtc dt:dt="string">2021-06-15T13:29:28Z</DateUtc></StartTime><FrequencyChanges><FrequencyChange><Frequency dt:dt="r8">3117968</Frequency><Timestamp dt:dt="r8">26963278924</Timestamp><Current dt:dt="r8">0</Current><DateUtc dt:dt="string">2021-06-15T13:29:28Z</DateUtc></FrequencyChange></FrequencyChanges></Clock>\n	qualiamotion pilot-1-1	84.909	1.0.0.518	F	1	right	-999999	352152	352152	0	VR	1194103754	Professional	2.0.10.356	2.0.10.356	06-15-2021	15/06/2021 13:29:28	15:29:28	female	2.0.10.252	-999999	18	351021	0	2										blockproc	XPBlocklist							1	1	1				9					NEUTRO	1		VERDE	ROSSO	F																							m	1847			b	10335	m	13423													FELICE	1	1	1	NeutroFeliceProc				NeutroFelice	VR_NF_1.png								
qualiamotion pilot	1	1	YES	<?xml version="1.0"?>\n<Clock xmlns:dt="urn:schemas-microsoft-com:datatypes"><Description dt:dt="string">E-Prime Primary Realtime Clock</Description><StartTime><Timestamp dt:dt="int">0</Timestamp><DateUtc dt:dt="string">2021-06-15T13:29:28Z</DateUtc></StartTime><FrequencyChanges><FrequencyChange><Frequency dt:dt="r8">3117968</Frequency><Timestamp dt:dt="r8">26963278924</Timestamp><Current dt:dt="r8">0</Current><DateUtc dt:dt="string">2021-06-15T13:29:28Z</DateUtc></FrequencyChange></FrequencyChanges></Clock>\n	qualiamotion pilot-1-1	84.909	1.0.0.518	F	1	right	-999999	352152	352152	0	VR	1194103754	Professional	2.0.10.356	2.0.10.356	06-15-2021	15/06/2021 13:29:28	15:29:28	female	2.0.10.252	-999999	18	351021	0	2										blockproc	XPBlocklist							1	1	1				10					NEUTRO	1		ROSSO	VERDE	F																							m	1405			b	4533															FELICE	2	1	2	NeutroFeliceProc				NeutroFelice	RV_NF_1.png								
qualiamotion pilot	1	1	YES	<?xml version="1.0"?>\n<Clock xmlns:dt="urn:schemas-microsoft-com:datatypes"><Description dt:dt="string">E-Prime Primary Realtime Clock</Description><StartTime><Timestamp dt:dt="int">0</Timestamp><DateUtc dt:dt="string">2021-06-15T13:29:28Z</DateUtc></StartTime><FrequencyChanges><FrequencyChange><Frequency dt:dt="r8">3117968</Frequency><Timestamp dt:dt="r8">26963278924</Timestamp><Current dt:dt="r8">0</Current><DateUtc dt:dt="string">2021-06-15T13:29:28Z</DateUtc></FrequencyChange></FrequencyChanges></Clock>\n	qualiamotion pilot-1-1	84.909	1.0.0.518	F	1	right	-999999	352152	352152	0	VR	1194103754	Professional	2.0.10.356	2.0.10.356	06-15-2021	15/06/2021 13:29:28	15:29:28	female	2.0.10.252	-999999	18	351021	0	2										blockproc	XPBlocklist							1	1	1				11					NEUTRO	2		VERDE	ROSSO	F																							m	1602			n	6498	m	8370	b	10914	m	12450									FELICE	3	1	3	NeutroFeliceProc				NeutroFelice	VR_NF_2.png								
qualiamotion pilot	1	1	YES	<?xml version="1.0"?>\n<Clock xmlns:dt="urn:schemas-microsoft-com:datatypes"><Description dt:dt="string">E-Prime Primary Realtime Clock</Description><StartTime><Timestamp dt:dt="int">0</Timestamp><DateUtc dt:dt="string">2021-06-15T13:29:28Z</DateUtc></StartTime><FrequencyChanges><FrequencyChange><Frequency dt:dt="r8">3117968</Frequency><Timestamp dt:dt="r8">26963278924</Timestamp><Current dt:dt="r8">0</Current><DateUtc dt:dt="string">2021-06-15T13:29:28Z</DateUtc></FrequencyChange></FrequencyChanges></Clock>\n	qualiamotion pilot-1-1	84.909	1.0.0.518	F	1	right	-999999	352152	352152	0	VR	1194103754	Professional	2.0.10.356	2.0.10.356	06-15-2021	15/06/2021 13:29:28	15:29:28	female	2.0.10.252	-999999	18	351021	0	2										blockproc	XPBlocklist							1	1	1				12					NEUTRO	2		ROSSO	VERDE	F																							b	1897			n	10817															FELICE	4	1	4	NeutroFeliceProc				NeutroFelice	RV_NF_2.png								
qualiamotion pilot	1	1	YES	<?xml version="1.0"?>\n<Clock xmlns:dt="urn:schemas-microsoft-com:datatypes"><Description dt:dt="string">E-Prime Primary Realtime Clock</Description><StartTime><Timestamp dt:dt="int">0</Timestamp><DateUtc dt:dt="string">2021-06-15T13:29:28Z</DateUtc></StartTime><FrequencyChanges><FrequencyChange><Frequency dt:dt="r8">3117968</Frequency><Timestamp dt:dt="r8">26963278924</Timestamp><Current dt:dt="r8">0</Current><DateUtc dt:dt="string">2021-06-15T13:29:28Z</DateUtc></FrequencyChange></FrequencyChanges></Clock>\n	qualiamotion pilot-1-1	84.909	1.0.0.518	F	1	right	-999999	352152	352152	0	VR	1194103754	Professional	2.0.10.356	2.0.10.356	06-15-2021	15/06/2021 13:29:28	15:29:28	female	2.0.10.252	-999999	18	351021	0	2										blockproc	XPBlocklist							1	1	1				13					NEUTRO	1		VERDE	ROSSO	F																							m	1238			n	8670	m	13654													FELICE	1	2	5	NeutroFeliceProc				NeutroFelice	VR_NF_1.png								
qualiamotion pilot	1	1	YES	<?xml version="1.0"?>\n<Clock xmlns:dt="urn:schemas-microsoft-com:datatypes"><Description dt:dt="string">E-Prime Primary Realtime Clock</Description><StartTime><Timestamp dt:dt="int">0</Timestamp><DateUtc dt:dt="string">2021-06-15T13:29:28Z</DateUtc></StartTime><FrequencyChanges><FrequencyChange><Frequency dt:dt="r8">3117968</Frequency><Timestamp dt:dt="r8">26963278924</Timestamp><Current dt:dt="r8">0</Current><DateUtc dt:dt="string">2021-06-15T13:29:28Z</DateUtc></FrequencyChange></FrequencyChanges></Clock>\n	qualiamotion pilot-1-1	84.909	1.0.0.518	F	1	right	-999999	352152	352152	0	VR	1194103754	Professional	2.0.10.356	2.0.10.356	06-15-2021	15/06/2021 13:29:28	15:29:28	female	2.0.10.252	-999999	18	351021	0	2										blockproc	XPBlocklist							1	1	1				14					NEUTRO	1		ROSSO	VERDE	F																							b	2445			n	8037	b	12029	n	13381											FELICE	2	2	6	NeutroFeliceProc				NeutroFelice	RV_NF_1.png								
qualiamotion pilot	1	1	YES	<?xml version="1.0"?>\n<Clock xmlns:dt="urn:schemas-microsoft-com:datatypes"><Description dt:dt="string">E-Prime Primary Realtime Clock</Description><StartTime><Timestamp dt:dt="int">0</Timestamp><DateUtc dt:dt="string">2021-06-15T13:29:28Z</DateUtc></StartTime><FrequencyChanges><FrequencyChange><Frequency dt:dt="r8">3117968</Frequency><Timestamp dt:dt="r8">26963278924</Timestamp><Current dt:dt="r8">0</Current><DateUtc dt:dt="string">2021-06-15T13:29:28Z</DateUtc></FrequencyChange></FrequencyChanges></Clock>\n	qualiamotion pilot-1-1	84.909	1.0.0.518	F	1	right	-999999	352152	352152	0	VR	1194103754	Professional	2.0.10.356	2.0.10.356	06-15-2021	15/06/2021 13:29:28	15:29:28	female	2.0.10.252	-999999	18	351021	0	2										blockproc	XPBlocklist							1	1	1				15					NEUTRO	2		VERDE	ROSSO	F																							m	1242			n	8970	b	10002	n	11434	m	13898									FELICE	3	2	7	NeutroFeliceProc				NeutroFelice	VR_NF_2.png								
qualiamotion pilot	1	1	YES	<?xml version="1.0"?>\n<Clock xmlns:dt="urn:schemas-microsoft-com:datatypes"><Description dt:dt="string">E-Prime Primary Realtime Clock</Description><StartTime><Timestamp dt:dt="int">0</Timestamp><DateUtc dt:dt="string">2021-06-15T13:29:28Z</DateUtc></StartTime><FrequencyChanges><FrequencyChange><Frequency dt:dt="r8">3117968</Frequency><Timestamp dt:dt="r8">26963278924</Timestamp><Current dt:dt="r8">0</Current><DateUtc dt:dt="string">2021-06-15T13:29:28Z</DateUtc></FrequencyChange></FrequencyChanges></Clock>\n	qualiamotion pilot-1-1	84.909	1.0.0.518	F	1	right	-999999	352152	352152	0	VR	1194103754	Professional	2.0.10.356	2.0.10.356	06-15-2021	15/06/2021 13:29:28	15:29:28	female	2.0.10.252	-999999	18	351021	0	2										blockproc	XPBlocklist							1	1	1				16					NEUTRO	2		ROSSO	VERDE	F																							n	1697			b	8681	n	13913													FELICE	4	2	8	NeutroFeliceProc				NeutroFelice	RV_NF_2.png								
qualiamotion pilot	1	1	YES	<?xml version="1.0"?>\n<Clock xmlns:dt="urn:schemas-microsoft-com:datatypes"><Description dt:dt="string">E-Prime Primary Realtime Clock</Description><StartTime><Timestamp dt:dt="int">0</Timestamp><DateUtc dt:dt="string">2021-06-15T13:29:28Z</DateUtc></StartTime><FrequencyChanges><FrequencyChange><Frequency dt:dt="r8">3117968</Frequency><Timestamp dt:dt="r8">26963278924</Timestamp><Current dt:dt="r8">0</Current><DateUtc dt:dt="string">2021-06-15T13:29:28Z</DateUtc></FrequencyChange></FrequencyChanges></Clock>\n	qualiamotion pilot-1-1	84.909	1.0.0.518	F	1	right	-999999	352152	352152	0	VR	1194103754	Professional	2.0.10.356	2.0.10.356	06-15-2021	15/06/2021 13:29:28	15:29:28	female	2.0.10.252	-999999	18	351021	0	3										Vallist	Valutation				1	1	1							1						1	VERDE			F																																															ValenzaTrialproc				Valtrialproc	V_F1.png	FELICE				u	5	1	1
qualiamotion pilot	1	1	YES	<?xml version="1.0"?>\n<Clock xmlns:dt="urn:schemas-microsoft-com:datatypes"><Description dt:dt="string">E-Prime Primary Realtime Clock</Description><StartTime><Timestamp dt:dt="int">0</Timestamp><DateUtc dt:dt="string">2021-06-15T13:29:28Z</DateUtc></StartTime><FrequencyChanges><FrequencyChange><Frequency dt:dt="r8">3117968</Frequency><Timestamp dt:dt="r8">26963278924</Timestamp><Current dt:dt="r8">0</Current><DateUtc dt:dt="string">2021-06-15T13:29:28Z</DateUtc></FrequencyChange></FrequencyChanges></Clock>\n	qualiamotion pilot-1-1	84.909	1.0.0.518	F	1	right	-999999	352152	352152	0	VR	1194103754	Professional	2.0.10.356	2.0.10.356	06-15-2021	15/06/2021 13:29:28	15:29:28	female	2.0.10.252	-999999	18	351021	0	3										Vallist	Valutation				1	1	1							2						1	ROSSO			F																																															ValenzaTrialproc				Valtrialproc	R_F1.png	FELICE				u	1	1	2
qualiamotion pilot	1	1	YES	<?xml version="1.0"?>\n<Clock xmlns:dt="urn:schemas-microsoft-com:datatypes"><Description dt:dt="string">E-Prime Primary Realtime Clock</Description><StartTime><Timestamp dt:dt="int">0</Timestamp><DateUtc dt:dt="string">2021-06-15T13:29:28Z</DateUtc></StartTime><FrequencyChanges><FrequencyChange><Frequency dt:dt="r8">3117968</Frequency><Timestamp dt:dt="r8">26963278924</Timestamp><Current dt:dt="r8">0</Current><DateUtc dt:dt="string">2021-06-15T13:29:28Z</DateUtc></FrequencyChange></FrequencyChanges></Clock>\n	qualiamotion pilot-1-1	84.909	1.0.0.518	F	1	right	-999999	352152	352152	0	VR	1194103754	Professional	2.0.10.356	2.0.10.356	06-15-2021	15/06/2021 13:29:28	15:29:28	female	2.0.10.252	-999999	18	351021	0	3										Vallist	Valutation				1	1	1							3						2	VERDE			F																																															ValenzaTrialproc				Valtrialproc	V_F2.png	FELICE				u	6	1	3
qualiamotion pilot	1	1	YES	<?xml version="1.0"?>\n<Clock xmlns:dt="urn:schemas-microsoft-com:datatypes"><Description dt:dt="string">E-Prime Primary Realtime Clock</Description><StartTime><Timestamp dt:dt="int">0</Timestamp><DateUtc dt:dt="string">2021-06-15T13:29:28Z</DateUtc></StartTime><FrequencyChanges><FrequencyChange><Frequency dt:dt="r8">3117968</Frequency><Timestamp dt:dt="r8">26963278924</Timestamp><Current dt:dt="r8">0</Current><DateUtc dt:dt="string">2021-06-15T13:29:28Z</DateUtc></FrequencyChange></FrequencyChanges></Clock>\n	qualiamotion pilot-1-1	84.909	1.0.0.518	F	1	right	-999999	352152	352152	0	VR	1194103754	Professional	2.0.10.356	2.0.10.356	06-15-2021	15/06/2021 13:29:28	15:29:28	female	2.0.10.252	-999999	18	351021	0	3										Vallist	Valutation				1	1	1							4						2	VERDE			F																																															ValenzaTrialproc				Valtrialproc	V_N2.png	NEUTRO				e	8	1	4
qualiamotion pilot	1	1	YES	<?xml version="1.0"?>\n<Clock xmlns:dt="urn:schemas-microsoft-com:datatypes"><Description dt:dt="string">E-Prime Primary Realtime Clock</Description><StartTime><Timestamp dt:dt="int">0</Timestamp><DateUtc dt:dt="string">2021-06-15T13:29:28Z</DateUtc></StartTime><FrequencyChanges><FrequencyChange><Frequency dt:dt="r8">3117968</Frequency><Timestamp dt:dt="r8">26963278924</Timestamp><Current dt:dt="r8">0</Current><DateUtc dt:dt="string">2021-06-15T13:29:28Z</DateUtc></FrequencyChange></FrequencyChanges></Clock>\n	qualiamotion pilot-1-1	84.909	1.0.0.518	F	1	right	-999999	352152	352152	0	VR	1194103754	Professional	2.0.10.356	2.0.10.356	06-15-2021	15/06/2021 13:29:28	15:29:28	female	2.0.10.252	-999999	18	351021	0	3										Vallist	Valutation				1	1	1							5						2	ROSSO			F																																															ValenzaTrialproc				Valtrialproc	R_F2.png	FELICE				u	2	1	5
qualiamotion pilot	1	1	YES	<?xml version="1.0"?>\n<Clock xmlns:dt="urn:schemas-microsoft-com:datatypes"><Description dt:dt="string">E-Prime Primary Realtime Clock</Description><StartTime><Timestamp dt:dt="int">0</Timestamp><DateUtc dt:dt="string">2021-06-15T13:29:28Z</DateUtc></StartTime><FrequencyChanges><FrequencyChange><Frequency dt:dt="r8">3117968</Frequency><Timestamp dt:dt="r8">26963278924</Timestamp><Current dt:dt="r8">0</Current><DateUtc dt:dt="string">2021-06-15T13:29:28Z</DateUtc></FrequencyChange></FrequencyChanges></Clock>\n	qualiamotion pilot-1-1	84.909	1.0.0.518	F	1	right	-999999	352152	352152	0	VR	1194103754	Professional	2.0.10.356	2.0.10.356	06-15-2021	15/06/2021 13:29:28	15:29:28	female	2.0.10.252	-999999	18	351021	0	3										Vallist	Valutation				1	1	1							6						1	VERDE			F																																															ValenzaTrialproc				Valtrialproc	V_N1.png	NEUTRO				e	7	1	6
qualiamotion pilot	1	1	YES	<?xml version="1.0"?>\n<Clock xmlns:dt="urn:schemas-microsoft-com:datatypes"><Description dt:dt="string">E-Prime Primary Realtime Clock</Description><StartTime><Timestamp dt:dt="int">0</Timestamp><DateUtc dt:dt="string">2021-06-15T13:29:28Z</DateUtc></StartTime><FrequencyChanges><FrequencyChange><Frequency dt:dt="r8">3117968</Frequency><Timestamp dt:dt="r8">26963278924</Timestamp><Current dt:dt="r8">0</Current><DateUtc dt:dt="string">2021-06-15T13:29:28Z</DateUtc></FrequencyChange></FrequencyChanges></Clock>\n	qualiamotion pilot-1-1	84.909	1.0.0.518	F	1	right	-999999	352152	352152	0	VR	1194103754	Professional	2.0.10.356	2.0.10.356	06-15-2021	15/06/2021 13:29:28	15:29:28	female	2.0.10.252	-999999	18	351021	0	3										Vallist	Valutation				1	1	1							7						2	ROSSO			F																																															ValenzaTrialproc				Valtrialproc	R_N2.png	NEUTRO				e	4	1	7
qualiamotion pilot	1	1	YES	<?xml version="1.0"?>\n<Clock xmlns:dt="urn:schemas-microsoft-com:datatypes"><Description dt:dt="string">E-Prime Primary Realtime Clock</Description><StartTime><Timestamp dt:dt="int">0</Timestamp><DateUtc dt:dt="string">2021-06-15T13:29:28Z</DateUtc></StartTime><FrequencyChanges><FrequencyChange><Frequency dt:dt="r8">3117968</Frequency><Timestamp dt:dt="r8">26963278924</Timestamp><Current dt:dt="r8">0</Current><DateUtc dt:dt="string">2021-06-15T13:29:28Z</DateUtc></FrequencyChange></FrequencyChanges></Clock>\n	qualiamotion pilot-1-1	84.909	1.0.0.518	F	1	right	-999999	352152	352152	0	VR	1194103754	Professional	2.0.10.356	2.0.10.356	06-15-2021	15/06/2021 13:29:28	15:29:28	female	2.0.10.252	-999999	18	351021	0	3										Vallist	Valutation				1	1	1							8						1	ROSSO			F																																															ValenzaTrialproc				Valtrialproc	R_N1.png	NEUTRO				e	3	1	8
qualiamotion pilot	1	1	YES	<?xml version="1.0"?>\n<Clock xmlns:dt="urn:schemas-microsoft-com:datatypes"><Description dt:dt="string">E-Prime Primary Realtime Clock</Description><StartTime><Timestamp dt:dt="int">0</Timestamp><DateUtc dt:dt="string">2021-06-15T13:29:28Z</DateUtc></StartTime><FrequencyChanges><FrequencyChange><Frequency dt:dt="r8">3117968</Frequency><Timestamp dt:dt="r8">26963278924</Timestamp><Current dt:dt="r8">0</Current><DateUtc dt:dt="string">2021-06-15T13:29:28Z</DateUtc></FrequencyChange></FrequencyChanges></Clock>\n	qualiamotion pilot-1-1	84.909	1.0.0.518	F	1	right	-999999	352152	352152	0	VR	1194103754	Professional	2.0.10.356	2.0.10.356	06-15-2021	15/06/2021 13:29:28	15:29:28	female	2.0.10.252	-999999	18	351021	0	3										Vallist	Valutation				1	1	1							9	5	5	1	1		1	VERDE			F																																															ArousalTrialproc				Arousalproc	V_F1.png	FELICE							
qualiamotion pilot	1	1	YES	<?xml version="1.0"?>\n<Clock xmlns:dt="urn:schemas-microsoft-com:datatypes"><Description dt:dt="string">E-Prime Primary Realtime Clock</Description><StartTime><Timestamp dt:dt="int">0</Timestamp><DateUtc dt:dt="string">2021-06-15T13:29:28Z</DateUtc></StartTime><FrequencyChanges><FrequencyChange><Frequency dt:dt="r8">3117968</Frequency><Timestamp dt:dt="r8">26963278924</Timestamp><Current dt:dt="r8">0</Current><DateUtc dt:dt="string">2021-06-15T13:29:28Z</DateUtc></FrequencyChange></FrequencyChanges></Clock>\n	qualiamotion pilot-1-1	84.909	1.0.0.518	F	1	right	-999999	352152	352152	0	VR	1194103754	Professional	2.0.10.356	2.0.10.356	06-15-2021	15/06/2021 13:29:28	15:29:28	female	2.0.10.252	-999999	18	351021	0	3										Vallist	Valutation				1	1	1							10	5	1	1	2		1	ROSSO			F																																															ArousalTrialproc				Arousalproc	R_F1.png	FELICE							
qualiamotion pilot	1	1	YES	<?xml version="1.0"?>\n<Clock xmlns:dt="urn:schemas-microsoft-com:datatypes"><Description dt:dt="string">E-Prime Primary Realtime Clock</Description><StartTime><Timestamp dt:dt="int">0</Timestamp><DateUtc dt:dt="string">2021-06-15T13:29:28Z</DateUtc></StartTime><FrequencyChanges><FrequencyChange><Frequency dt:dt="r8">3117968</Frequency><Timestamp dt:dt="r8">26963278924</Timestamp><Current dt:dt="r8">0</Current><DateUtc dt:dt="string">2021-06-15T13:29:28Z</DateUtc></FrequencyChange></FrequencyChanges></Clock>\n	qualiamotion pilot-1-1	84.909	1.0.0.518	F	1	right	-999999	352152	352152	0	VR	1194103754	Professional	2.0.10.356	2.0.10.356	06-15-2021	15/06/2021 13:29:28	15:29:28	female	2.0.10.252	-999999	18	351021	0	3										Vallist	Valutation				1	1	1							11	2	4	1	3		2	ROSSO			F																																															ArousalTrialproc				Arousalproc	R_N2.png	NEUTRO							
qualiamotion pilot	1	1	YES	<?xml version="1.0"?>\n<Clock xmlns:dt="urn:schemas-microsoft-com:datatypes"><Description dt:dt="string">E-Prime Primary Realtime Clock</Description><StartTime><Timestamp dt:dt="int">0</Timestamp><DateUtc dt:dt="string">2021-06-15T13:29:28Z</DateUtc></StartTime><FrequencyChanges><FrequencyChange><Frequency dt:dt="r8">3117968</Frequency><Timestamp dt:dt="r8">26963278924</Timestamp><Current dt:dt="r8">0</Current><DateUtc dt:dt="string">2021-06-15T13:29:28Z</DateUtc></FrequencyChange></FrequencyChanges></Clock>\n	qualiamotion pilot-1-1	84.909	1.0.0.518	F	1	right	-999999	352152	352152	0	VR	1194103754	Professional	2.0.10.356	2.0.10.356	06-15-2021	15/06/2021 13:29:28	15:29:28	female	2.0.10.252	-999999	18	351021	0	3										Vallist	Valutation				1	1	1							12	6	2	1	4		2	ROSSO			F																																															ArousalTrialproc				Arousalproc	R_F2.png	FELICE							
qualiamotion pilot	1	1	YES	<?xml version="1.0"?>\n<Clock xmlns:dt="urn:schemas-microsoft-com:datatypes"><Description dt:dt="string">E-Prime Primary Realtime Clock</Description><StartTime><Timestamp dt:dt="int">0</Timestamp><DateUtc dt:dt="string">2021-06-15T13:29:28Z</DateUtc></StartTime><FrequencyChanges><FrequencyChange><Frequency dt:dt="r8">3117968</Frequency><Timestamp dt:dt="r8">26963278924</Timestamp><Current dt:dt="r8">0</Current><DateUtc dt:dt="string">2021-06-15T13:29:28Z</DateUtc></FrequencyChange></FrequencyChanges></Clock>\n	qualiamotion pilot-1-1	84.909	1.0.0.518	F	1	right	-999999	352152	352152	0	VR	1194103754	Professional	2.0.10.356	2.0.10.356	06-15-2021	15/06/2021 13:29:28	15:29:28	female	2.0.10.252	-999999	18	351021	0	3										Vallist	Valutation				1	1	1							13	1	3	1	5		1	ROSSO			F																																															ArousalTrialproc				Arousalproc	R_N1.png	NEUTRO							
qualiamotion pilot	1	1	YES	<?xml version="1.0"?>\n<Clock xmlns:dt="urn:schemas-microsoft-com:datatypes"><Description dt:dt="string">E-Prime Primary Realtime Clock</Description><StartTime><Timestamp dt:dt="int">0</Timestamp><DateUtc dt:dt="string">2021-06-15T13:29:28Z</DateUtc></StartTime><FrequencyChanges><FrequencyChange><Frequency dt:dt="r8">3117968</Frequency><Timestamp dt:dt="r8">26963278924</Timestamp><Current dt:dt="r8">0</Current><DateUtc dt:dt="string">2021-06-15T13:29:28Z</DateUtc></FrequencyChange></FrequencyChanges></Clock>\n	qualiamotion pilot-1-1	84.909	1.0.0.518	F	1	right	-999999	352152	352152	0	VR	1194103754	Professional	2.0.10.356	2.0.10.356	06-15-2021	15/06/2021 13:29:28	15:29:28	female	2.0.10.252	-999999	18	351021	0	3										Vallist	Valutation				1	1	1							14	1	8	1	6		2	VERDE			F																																															ArousalTrialproc				Arousalproc	V_N2.png	NEUTRO							
qualiamotion pilot	1	1	YES	<?xml version="1.0"?>\n<Clock xmlns:dt="urn:schemas-microsoft-com:datatypes"><Description dt:dt="string">E-Prime Primary Realtime Clock</Description><StartTime><Timestamp dt:dt="int">0</Timestamp><DateUtc dt:dt="string">2021-06-15T13:29:28Z</DateUtc></StartTime><FrequencyChanges><FrequencyChange><Frequency dt:dt="r8">3117968</Frequency><Timestamp dt:dt="r8">26963278924</Timestamp><Current dt:dt="r8">0</Current><DateUtc dt:dt="string">2021-06-15T13:29:28Z</DateUtc></FrequencyChange></FrequencyChanges></Clock>\n	qualiamotion pilot-1-1	84.909	1.0.0.518	F	1	right	-999999	352152	352152	0	VR	1194103754	Professional	2.0.10.356	2.0.10.356	06-15-2021	15/06/2021 13:29:28	15:29:28	female	2.0.10.252	-999999	18	351021	0	3										Vallist	Valutation				1	1	1							15	2	7	1	7		1	VERDE			F																																															ArousalTrialproc				Arousalproc	V_N1.png	NEUTRO							
qualiamotion pilot	1	1	YES	<?xml version="1.0"?>\n<Clock xmlns:dt="urn:schemas-microsoft-com:datatypes"><Description dt:dt="string">E-Prime Primary Realtime Clock</Description><StartTime><Timestamp dt:dt="int">0</Timestamp><DateUtc dt:dt="string">2021-06-15T13:29:28Z</DateUtc></StartTime><FrequencyChanges><FrequencyChange><Frequency dt:dt="r8">3117968</Frequency><Timestamp dt:dt="r8">26963278924</Timestamp><Current dt:dt="r8">0</Current><DateUtc dt:dt="string">2021-06-15T13:29:28Z</DateUtc></FrequencyChange></FrequencyChanges></Clock>\n	qualiamotion pilot-1-1	84.909	1.0.0.518	F	1	right	-999999	352152	352152	0	VR	1194103754	Professional	2.0.10.356	2.0.10.356	06-15-2021	15/06/2021 13:29:28	15:29:28	female	2.0.10.252	-999999	18	351021	0	3										Vallist	Valutation				1	1	1							16	5	6	1	8		2	VERDE			F																																															ArousalTrialproc				Arousalproc	V_F2.png	FELICE							
qualiamotion pilot	1	2	NO	<?xml version="1.0"?>\n<Clock xmlns:dt="urn:schemas-microsoft-com:datatypes"><Description dt:dt="string">E-Prime Primary Realtime Clock</Description><StartTime><Timestamp dt:dt="int">0</Timestamp><DateUtc dt:dt="string">2021-06-15T13:45:43Z</DateUtc></StartTime><FrequencyChanges><FrequencyChange><Frequency dt:dt="r8">3117968</Frequency><Timestamp dt:dt="r8">30003871140</Timestamp><Current dt:dt="r8">0</Current><DateUtc dt:dt="string">2021-06-15T13:45:43Z</DateUtc></FrequencyChange></FrequencyChanges></Clock>\n	qualiamotion pilot-1-2	84.909	1.0.0.519	N	1	right	-999999	18716	18716	0	VR	-60305220	Professional	2.0.10.356	2.0.10.356	06-15-2021	15/06/2021 13:45:43	15:45:43	female	2.0.10.252	-999999	18	17880	0	1										blockproc2	XpBlocklist2										1	1	1	1					NEUTRO	1		VERDE	ROSSO	N																							m	846			n	9094	b	9782	n	11206	m	12862									FELICE	1	1	1	NeutroFeliceProc				NeutroFelice	VR_NF_1.png								
qualiamotion pilot	1	2	NO	<?xml version="1.0"?>\n<Clock xmlns:dt="urn:schemas-microsoft-com:datatypes"><Description dt:dt="string">E-Prime Primary Realtime Clock</Description><StartTime><Timestamp dt:dt="int">0</Timestamp><DateUtc dt:dt="string">2021-06-15T13:45:43Z</DateUtc></StartTime><FrequencyChanges><FrequencyChange><Frequency dt:dt="r8">3117968</Frequency><Timestamp dt:dt="r8">30003871140</Timestamp><Current dt:dt="r8">0</Current><DateUtc dt:dt="string">2021-06-15T13:45:43Z</DateUtc></FrequencyChange></FrequencyChanges></Clock>\n	qualiamotion pilot-1-2	84.909	1.0.0.519	N	1	right	-999999	18716	18716	0	VR	-60305220	Professional	2.0.10.356	2.0.10.356	06-15-2021	15/06/2021 13:45:43	15:45:43	female	2.0.10.252	-999999	18	17880	0	1										blockproc2	XpBlocklist2										1	1	1	2					NEUTRO	1		ROSSO	VERDE	N																							n	1156			n	6004	b	8444													FELICE	2	1	2	NeutroFeliceProc				NeutroFelice	RV_NF_1.png								
qualiamotion pilot	1	2	NO	<?xml version="1.0"?>\n<Clock xmlns:dt="urn:schemas-microsoft-com:datatypes"><Description dt:dt="string">E-Prime Primary Realtime Clock</Description><StartTime><Timestamp dt:dt="int">0</Timestamp><DateUtc dt:dt="string">2021-06-15T13:45:43Z</DateUtc></StartTime><FrequencyChanges><FrequencyChange><Frequency dt:dt="r8">3117968</Frequency><Timestamp dt:dt="r8">30003871140</Timestamp><Current dt:dt="r8">0</Current><DateUtc dt:dt="string">2021-06-15T13:45:43Z</DateUtc></FrequencyChange></FrequencyChanges></Clock>\n	qualiamotion pilot-1-2	84.909	1.0.0.519	N	1	right	-999999	18716	18716	0	VR	-60305220	Professional	2.0.10.356	2.0.10.356	06-15-2021	15/06/2021 13:45:43	15:45:43	female	2.0.10.252	-999999	18	17880	0	1										blockproc2	XpBlocklist2										1	1	1	3					NEUTRO	2		VERDE	ROSSO	N																							m	1018			n	11690	b	12458	n	13810											FELICE	3	1	3	NeutroFeliceProc				NeutroFelice	VR_NF_2.png								
qualiamotion pilot	1	2	NO	<?xml version="1.0"?>\n<Clock xmlns:dt="urn:schemas-microsoft-com:datatypes"><Description dt:dt="string">E-Prime Primary Realtime Clock</Description><StartTime><Timestamp dt:dt="int">0</Timestamp><DateUtc dt:dt="string">2021-06-15T13:45:43Z</DateUtc></StartTime><FrequencyChanges><FrequencyChange><Frequency dt:dt="r8">3117968</Frequency><Timestamp dt:dt="r8">30003871140</Timestamp><Current dt:dt="r8">0</Current><DateUtc dt:dt="string">2021-06-15T13:45:43Z</DateUtc></FrequencyChange></FrequencyChanges></Clock>\n	qualiamotion pilot-1-2	84.909	1.0.0.519	N	1	right	-999999	18716	18716	0	VR	-60305220	Professional	2.0.10.356	2.0.10.356	06-15-2021	15/06/2021 13:45:43	15:45:43	female	2.0.10.252	-999999	18	17880	0	1										blockproc2	XpBlocklist2										1	1	1	4					NEUTRO	2		ROSSO	VERDE	N																							n	976			n	6855	m	12079													FELICE	4	1	4	NeutroFeliceProc				NeutroFelice	RV_NF_2.png								
qualiamotion pilot	1	2	NO	<?xml version="1.0"?>\n<Clock xmlns:dt="urn:schemas-microsoft-com:datatypes"><Description dt:dt="string">E-Prime Primary Realtime Clock</Description><StartTime><Timestamp dt:dt="int">0</Timestamp><DateUtc dt:dt="string">2021-06-15T13:45:43Z</DateUtc></StartTime><FrequencyChanges><FrequencyChange><Frequency dt:dt="r8">3117968</Frequency><Timestamp dt:dt="r8">30003871140</Timestamp><Current dt:dt="r8">0</Current><DateUtc dt:dt="string">2021-06-15T13:45:43Z</DateUtc></FrequencyChange></FrequencyChanges></Clock>\n	qualiamotion pilot-1-2	84.909	1.0.0.519	N	1	right	-999999	18716	18716	0	VR	-60305220	Professional	2.0.10.356	2.0.10.356	06-15-2021	15/06/2021 13:45:43	15:45:43	female	2.0.10.252	-999999	18	17880	0	1										blockproc2	XpBlocklist2										1	1	1	5					NEUTRO	1		VERDE	ROSSO	N																							m	1446																			FELICE	1	2	5	NeutroFeliceProc				NeutroFelice	VR_NF_1.png								
qualiamotion pilot	1	2	NO	<?xml version="1.0"?>\n<Clock xmlns:dt="urn:schemas-microsoft-com:datatypes"><Description dt:dt="string">E-Prime Primary Realtime Clock</Description><StartTime><Timestamp dt:dt="int">0</Timestamp><DateUtc dt:dt="string">2021-06-15T13:45:43Z</DateUtc></StartTime><FrequencyChanges><FrequencyChange><Frequency dt:dt="r8">3117968</Frequency><Timestamp dt:dt="r8">30003871140</Timestamp><Current dt:dt="r8">0</Current><DateUtc dt:dt="string">2021-06-15T13:45:43Z</DateUtc></FrequencyChange></FrequencyChanges></Clock>\n	qualiamotion pilot-1-2	84.909	1.0.0.519	N	1	right	-999999	18716	18716	0	VR	-60305220	Professional	2.0.10.356	2.0.10.356	06-15-2021	15/06/2021 13:45:43	15:45:43	female	2.0.10.252	-999999	18	17880	0	1										blockproc2	XpBlocklist2										1	1	1	6					NEUTRO	1		ROSSO	VERDE	N																							n	828			b	2284	n	9964	m	13243											FELICE	2	2	6	NeutroFeliceProc				NeutroFelice	RV_NF_1.png								
qualiamotion pilot	1	2	NO	<?xml version="1.0"?>\n<Clock xmlns:dt="urn:schemas-microsoft-com:datatypes"><Description dt:dt="string">E-Prime Primary Realtime Clock</Description><StartTime><Timestamp dt:dt="int">0</Timestamp><DateUtc dt:dt="string">2021-06-15T13:45:43Z</DateUtc></StartTime><FrequencyChanges><FrequencyChange><Frequency dt:dt="r8">3117968</Frequency><Timestamp dt:dt="r8">30003871140</Timestamp><Current dt:dt="r8">0</Current><DateUtc dt:dt="string">2021-06-15T13:45:43Z</DateUtc></FrequencyChange></FrequencyChanges></Clock>\n	qualiamotion pilot-1-2	84.909	1.0.0.519	N	1	right	-999999	18716	18716	0	VR	-60305220	Professional	2.0.10.356	2.0.10.356	06-15-2021	15/06/2021 13:45:43	15:45:43	female	2.0.10.252	-999999	18	17880	0	1										blockproc2	XpBlocklist2										1	1	1	7					NEUTRO	2		VERDE	ROSSO	N																							m	1546			n	11386	b	12042	n	13378	m	14682									FELICE	3	2	7	NeutroFeliceProc				NeutroFelice	VR_NF_2.png								
qualiamotion pilot	1	2	NO	<?xml version="1.0"?>\n<Clock xmlns:dt="urn:schemas-microsoft-com:datatypes"><Description dt:dt="string">E-Prime Primary Realtime Clock</Description><StartTime><Timestamp dt:dt="int">0</Timestamp><DateUtc dt:dt="string">2021-06-15T13:45:43Z</DateUtc></StartTime><FrequencyChanges><FrequencyChange><Frequency dt:dt="r8">3117968</Frequency><Timestamp dt:dt="r8">30003871140</Timestamp><Current dt:dt="r8">0</Current><DateUtc dt:dt="string">2021-06-15T13:45:43Z</DateUtc></FrequencyChange></FrequencyChanges></Clock>\n	qualiamotion pilot-1-2	84.909	1.0.0.519	N	1	right	-999999	18716	18716	0	VR	-60305220	Professional	2.0.10.356	2.0.10.356	06-15-2021	15/06/2021 13:45:43	15:45:43	female	2.0.10.252	-999999	18	17880	0	1										blockproc2	XpBlocklist2										1	1	1	8					NEUTRO	2		ROSSO	VERDE	N																							b	1528			n	6056	b	9744	n	14888											FELICE	4	2	8	NeutroFeliceProc				NeutroFelice	RV_NF_2.png								
qualiamotion pilot	1	2	NO	<?xml version="1.0"?>\n<Clock xmlns:dt="urn:schemas-microsoft-com:datatypes"><Description dt:dt="string">E-Prime Primary Realtime Clock</Description><StartTime><Timestamp dt:dt="int">0</Timestamp><DateUtc dt:dt="string">2021-06-15T13:45:43Z</DateUtc></StartTime><FrequencyChanges><FrequencyChange><Frequency dt:dt="r8">3117968</Frequency><Timestamp dt:dt="r8">30003871140</Timestamp><Current dt:dt="r8">0</Current><DateUtc dt:dt="string">2021-06-15T13:45:43Z</DateUtc></FrequencyChange></FrequencyChanges></Clock>\n	qualiamotion pilot-1-2	84.909	1.0.0.519	N	1	right	-999999	18716	18716	0	VR	-60305220	Professional	2.0.10.356	2.0.10.356	06-15-2021	15/06/2021 13:45:43	15:45:43	female	2.0.10.252	-999999	18	17880	0	1										blockproc2	XpBlocklist2										1	1	1	9					FELICE	1		VERDE	ROSSO	2	1	1																					m	1774			n	11534	b	14086													NEUTRO				FeliceNeutroProc				FeliceNeutro	RV_NF_1.png								
qualiamotion pilot	1	2	NO	<?xml version="1.0"?>\n<Clock xmlns:dt="urn:schemas-microsoft-com:datatypes"><Description dt:dt="string">E-Prime Primary Realtime Clock</Description><StartTime><Timestamp dt:dt="int">0</Timestamp><DateUtc dt:dt="string">2021-06-15T13:45:43Z</DateUtc></StartTime><FrequencyChanges><FrequencyChange><Frequency dt:dt="r8">3117968</Frequency><Timestamp dt:dt="r8">30003871140</Timestamp><Current dt:dt="r8">0</Current><DateUtc dt:dt="string">2021-06-15T13:45:43Z</DateUtc></FrequencyChange></FrequencyChanges></Clock>\n	qualiamotion pilot-1-2	84.909	1.0.0.519	N	1	right	-999999	18716	18716	0	VR	-60305220	Professional	2.0.10.356	2.0.10.356	06-15-2021	15/06/2021 13:45:43	15:45:43	female	2.0.10.252	-999999	18	17880	0	1										blockproc2	XpBlocklist2										1	1	1	10					FELICE	1		ROSSO	VERDE	1	1	2																					b	1189			n	7581	b	10780													NEUTRO				FeliceNeutroProc				FeliceNeutro	VR_NF_1.png								
qualiamotion pilot	1	2	NO	<?xml version="1.0"?>\n<Clock xmlns:dt="urn:schemas-microsoft-com:datatypes"><Description dt:dt="string">E-Prime Primary Realtime Clock</Description><StartTime><Timestamp dt:dt="int">0</Timestamp><DateUtc dt:dt="string">2021-06-15T13:45:43Z</DateUtc></StartTime><FrequencyChanges><FrequencyChange><Frequency dt:dt="r8">3117968</Frequency><Timestamp dt:dt="r8">30003871140</Timestamp><Current dt:dt="r8">0</Current><DateUtc dt:dt="string">2021-06-15T13:45:43Z</DateUtc></FrequencyChange></FrequencyChanges></Clock>\n	qualiamotion pilot-1-2	84.909	1.0.0.519	N	1	right	-999999	18716	18716	0	VR	-60305220	Professional	2.0.10.356	2.0.10.356	06-15-2021	15/06/2021 13:45:43	15:45:43	female	2.0.10.252	-999999	18	17880	0	1										blockproc2	XpBlocklist2										1	1	1	11					FELICE	2		ROSSO	VERDE	3	1	3																					b	3010			n	12322	m	12698	n	14330											NEUTRO				FeliceNeutroProc				FeliceNeutro	VR_NF_2.png								
qualiamotion pilot	1	2	NO	<?xml version="1.0"?>\n<Clock xmlns:dt="urn:schemas-microsoft-com:datatypes"><Description dt:dt="string">E-Prime Primary Realtime Clock</Description><StartTime><Timestamp dt:dt="int">0</Timestamp><DateUtc dt:dt="string">2021-06-15T13:45:43Z</DateUtc></StartTime><FrequencyChanges><FrequencyChange><Frequency dt:dt="r8">3117968</Frequency><Timestamp dt:dt="r8">30003871140</Timestamp><Current dt:dt="r8">0</Current><DateUtc dt:dt="string">2021-06-15T13:45:43Z</DateUtc></FrequencyChange></FrequencyChanges></Clock>\n	qualiamotion pilot-1-2	84.909	1.0.0.519	N	1	right	-999999	18716	18716	0	VR	-60305220	Professional	2.0.10.356	2.0.10.356	06-15-2021	15/06/2021 13:45:43	15:45:43	female	2.0.10.252	-999999	18	17880	0	1										blockproc2	XpBlocklist2										1	1	1	12					FELICE	2		VERDE	ROSSO	4	1	4																					n	1113			b	3521	m	4385	n	12753	b	13121									NEUTRO				FeliceNeutroProc				FeliceNeutro	RV_NF_2.png								
qualiamotion pilot	1	2	NO	<?xml version="1.0"?>\n<Clock xmlns:dt="urn:schemas-microsoft-com:datatypes"><Description dt:dt="string">E-Prime Primary Realtime Clock</Description><StartTime><Timestamp dt:dt="int">0</Timestamp><DateUtc dt:dt="string">2021-06-15T13:45:43Z</DateUtc></StartTime><FrequencyChanges><FrequencyChange><Frequency dt:dt="r8">3117968</Frequency><Timestamp dt:dt="r8">30003871140</Timestamp><Current dt:dt="r8">0</Current><DateUtc dt:dt="string">2021-06-15T13:45:43Z</DateUtc></FrequencyChange></FrequencyChanges></Clock>\n	qualiamotion pilot-1-2	84.909	1.0.0.519	N	1	right	-999999	18716	18716	0	VR	-60305220	Professional	2.0.10.356	2.0.10.356	06-15-2021	15/06/2021 13:45:43	15:45:43	female	2.0.10.252	-999999	18	17880	0	1										blockproc2	XpBlocklist2										1	1	1	13					FELICE	2		ROSSO	VERDE	3	2	5																					b	1614			n	10110	m	11006	n	11718											NEUTRO				FeliceNeutroProc				FeliceNeutro	VR_NF_2.png								
qualiamotion pilot	1	2	NO	<?xml version="1.0"?>\n<Clock xmlns:dt="urn:schemas-microsoft-com:datatypes"><Description dt:dt="string">E-Prime Primary Realtime Clock</Description><StartTime><Timestamp dt:dt="int">0</Timestamp><DateUtc dt:dt="string">2021-06-15T13:45:43Z</DateUtc></StartTime><FrequencyChanges><FrequencyChange><Frequency dt:dt="r8">3117968</Frequency><Timestamp dt:dt="r8">30003871140</Timestamp><Current dt:dt="r8">0</Current><DateUtc dt:dt="string">2021-06-15T13:45:43Z</DateUtc></FrequencyChange></FrequencyChanges></Clock>\n	qualiamotion pilot-1-2	84.909	1.0.0.519	N	1	right	-999999	18716	18716	0	VR	-60305220	Professional	2.0.10.356	2.0.10.356	06-15-2021	15/06/2021 13:45:43	15:45:43	female	2.0.10.252	-999999	18	17880	0	1										blockproc2	XpBlocklist2										1	1	1	14					FELICE	1		VERDE	ROSSO	2	2	6																					n	3205			m	5029	n	12405													NEUTRO				FeliceNeutroProc				FeliceNeutro	RV_NF_1.png								
qualiamotion pilot	1	2	NO	<?xml version="1.0"?>\n<Clock xmlns:dt="urn:schemas-microsoft-com:datatypes"><Description dt:dt="string">E-Prime Primary Realtime Clock</Description><StartTime><Timestamp dt:dt="int">0</Timestamp><DateUtc dt:dt="string">2021-06-15T13:45:43Z</DateUtc></StartTime><FrequencyChanges><FrequencyChange><Frequency dt:dt="r8">3117968</Frequency><Timestamp dt:dt="r8">30003871140</Timestamp><Current dt:dt="r8">0</Current><DateUtc dt:dt="string">2021-06-15T13:45:43Z</DateUtc></FrequencyChange></FrequencyChanges></Clock>\n	qualiamotion pilot-1-2	84.909	1.0.0.519	N	1	right	-999999	18716	18716	0	VR	-60305220	Professional	2.0.10.356	2.0.10.356	06-15-2021	15/06/2021 13:45:43	15:45:43	female	2.0.10.252	-999999	18	17880	0	1										blockproc2	XpBlocklist2										1	1	1	15					FELICE	1		ROSSO	VERDE	1	2	7																					n	1483			b	2099															NEUTRO				FeliceNeutroProc				FeliceNeutro	VR_NF_1.png								
qualiamotion pilot	1	2	NO	<?xml version="1.0"?>\n<Clock xmlns:dt="urn:schemas-microsoft-com:datatypes"><Description dt:dt="string">E-Prime Primary Realtime Clock</Description><StartTime><Timestamp dt:dt="int">0</Timestamp><DateUtc dt:dt="string">2021-06-15T13:45:43Z</DateUtc></StartTime><FrequencyChanges><FrequencyChange><Frequency dt:dt="r8">3117968</Frequency><Timestamp dt:dt="r8">30003871140</Timestamp><Current dt:dt="r8">0</Current><DateUtc dt:dt="string">2021-06-15T13:45:43Z</DateUtc></FrequencyChange></FrequencyChanges></Clock>\n	qualiamotion pilot-1-2	84.909	1.0.0.519	N	1	right	-999999	18716	18716	0	VR	-60305220	Professional	2.0.10.356	2.0.10.356	06-15-2021	15/06/2021 13:45:43	15:45:43	female	2.0.10.252	-999999	18	17880	0	1										blockproc2	XpBlocklist2										1	1	1	16					FELICE	2		VERDE	ROSSO	4	2	8																					n	1040			m	1816	n	2664	m	3672	n	13808	b	14120							NEUTRO				FeliceNeutroProc				FeliceNeutro	RV_NF_2.png								
qualiamotion pilot	1	2	NO	<?xml version="1.0"?>\n<Clock xmlns:dt="urn:schemas-microsoft-com:datatypes"><Description dt:dt="string">E-Prime Primary Realtime Clock</Description><StartTime><Timestamp dt:dt="int">0</Timestamp><DateUtc dt:dt="string">2021-06-15T13:45:43Z</DateUtc></StartTime><FrequencyChanges><FrequencyChange><Frequency dt:dt="r8">3117968</Frequency><Timestamp dt:dt="r8">30003871140</Timestamp><Current dt:dt="r8">0</Current><DateUtc dt:dt="string">2021-06-15T13:45:43Z</DateUtc></FrequencyChange></FrequencyChanges></Clock>\n	qualiamotion pilot-1-2	84.909	1.0.0.519	N	1	right	-999999	18716	18716	0	VR	-60305220	Professional	2.0.10.356	2.0.10.356	06-15-2021	15/06/2021 13:45:43	15:45:43	female	2.0.10.252	-999999	18	17880	0	2										Vallist	Valutation				1	1	1							1						1	ROSSO			N																																															ValenzaTrialproc				Valtrialproc	R_F1.png	FELICE				y	1	1	1
qualiamotion pilot	1	2	NO	<?xml version="1.0"?>\n<Clock xmlns:dt="urn:schemas-microsoft-com:datatypes"><Description dt:dt="string">E-Prime Primary Realtime Clock</Description><StartTime><Timestamp dt:dt="int">0</Timestamp><DateUtc dt:dt="string">2021-06-15T13:45:43Z</DateUtc></StartTime><FrequencyChanges><FrequencyChange><Frequency dt:dt="r8">3117968</Frequency><Timestamp dt:dt="r8">30003871140</Timestamp><Current dt:dt="r8">0</Current><DateUtc dt:dt="string">2021-06-15T13:45:43Z</DateUtc></FrequencyChange></FrequencyChanges></Clock>\n	qualiamotion pilot-1-2	84.909	1.0.0.519	N	1	right	-999999	18716	18716	0	VR	-60305220	Professional	2.0.10.356	2.0.10.356	06-15-2021	15/06/2021 13:45:43	15:45:43	female	2.0.10.252	-999999	18	17880	0	2										Vallist	Valutation				1	1	1							2						2	VERDE			N																																															ValenzaTrialproc				Valtrialproc	V_N2.png	NEUTRO				e	8	1	2
qualiamotion pilot	1	2	NO	<?xml version="1.0"?>\n<Clock xmlns:dt="urn:schemas-microsoft-com:datatypes"><Description dt:dt="string">E-Prime Primary Realtime Clock</Description><StartTime><Timestamp dt:dt="int">0</Timestamp><DateUtc dt:dt="string">2021-06-15T13:45:43Z</DateUtc></StartTime><FrequencyChanges><FrequencyChange><Frequency dt:dt="r8">3117968</Frequency><Timestamp dt:dt="r8">30003871140</Timestamp><Current dt:dt="r8">0</Current><DateUtc dt:dt="string">2021-06-15T13:45:43Z</DateUtc></FrequencyChange></FrequencyChanges></Clock>\n	qualiamotion pilot-1-2	84.909	1.0.0.519	N	1	right	-999999	18716	18716	0	VR	-60305220	Professional	2.0.10.356	2.0.10.356	06-15-2021	15/06/2021 13:45:43	15:45:43	female	2.0.10.252	-999999	18	17880	0	2										Vallist	Valutation				1	1	1							3						1	VERDE			N																																															ValenzaTrialproc				Valtrialproc	V_N1.png	NEUTRO				e	7	1	3
qualiamotion pilot	1	2	NO	<?xml version="1.0"?>\n<Clock xmlns:dt="urn:schemas-microsoft-com:datatypes"><Description dt:dt="string">E-Prime Primary Realtime Clock</Description><StartTime><Timestamp dt:dt="int">0</Timestamp><DateUtc dt:dt="string">2021-06-15T13:45:43Z</DateUtc></StartTime><FrequencyChanges><FrequencyChange><Frequency dt:dt="r8">3117968</Frequency><Timestamp dt:dt="r8">30003871140</Timestamp><Current dt:dt="r8">0</Current><DateUtc dt:dt="string">2021-06-15T13:45:43Z</DateUtc></FrequencyChange></FrequencyChanges></Clock>\n	qualiamotion pilot-1-2	84.909	1.0.0.519	N	1	right	-999999	18716	18716	0	VR	-60305220	Professional	2.0.10.356	2.0.10.356	06-15-2021	15/06/2021 13:45:43	15:45:43	female	2.0.10.252	-999999	18	17880	0	2										Vallist	Valutation				1	1	1							4						2	ROSSO			N																																															ValenzaTrialproc				Valtrialproc	R_F2.png	FELICE				y	2	1	4
qualiamotion pilot	1	2	NO	<?xml version="1.0"?>\n<Clock xmlns:dt="urn:schemas-microsoft-com:datatypes"><Description dt:dt="string">E-Prime Primary Realtime Clock</Description><StartTime><Timestamp dt:dt="int">0</Timestamp><DateUtc dt:dt="string">2021-06-15T13:45:43Z</DateUtc></StartTime><FrequencyChanges><FrequencyChange><Frequency dt:dt="r8">3117968</Frequency><Timestamp dt:dt="r8">30003871140</Timestamp><Current dt:dt="r8">0</Current><DateUtc dt:dt="string">2021-06-15T13:45:43Z</DateUtc></FrequencyChange></FrequencyChanges></Clock>\n	qualiamotion pilot-1-2	84.909	1.0.0.519	N	1	right	-999999	18716	18716	0	VR	-60305220	Professional	2.0.10.356	2.0.10.356	06-15-2021	15/06/2021 13:45:43	15:45:43	female	2.0.10.252	-999999	18	17880	0	2										Vallist	Valutation				1	1	1							5						1	ROSSO			N																																															ValenzaTrialproc				Valtrialproc	R_N1.png	NEUTRO				e	3	1	5
qualiamotion pilot	1	2	NO	<?xml version="1.0"?>\n<Clock xmlns:dt="urn:schemas-microsoft-com:datatypes"><Description dt:dt="string">E-Prime Primary Realtime Clock</Description><StartTime><Timestamp dt:dt="int">0</Timestamp><DateUtc dt:dt="string">2021-06-15T13:45:43Z</DateUtc></StartTime><FrequencyChanges><FrequencyChange><Frequency dt:dt="r8">3117968</Frequency><Timestamp dt:dt="r8">30003871140</Timestamp><Current dt:dt="r8">0</Current><DateUtc dt:dt="string">2021-06-15T13:45:43Z</DateUtc></FrequencyChange></FrequencyChanges></Clock>\n	qualiamotion pilot-1-2	84.909	1.0.0.519	N	1	right	-999999	18716	18716	0	VR	-60305220	Professional	2.0.10.356	2.0.10.356	06-15-2021	15/06/2021 13:45:43	15:45:43	female	2.0.10.252	-999999	18	17880	0	2										Vallist	Valutation				1	1	1							6						1	VERDE			N																																															ValenzaTrialproc				Valtrialproc	V_F1.png	FELICE				y	5	1	6
qualiamotion pilot	1	2	NO	<?xml version="1.0"?>\n<Clock xmlns:dt="urn:schemas-microsoft-com:datatypes"><Description dt:dt="string">E-Prime Primary Realtime Clock</Description><StartTime><Timestamp dt:dt="int">0</Timestamp><DateUtc dt:dt="string">2021-06-15T13:45:43Z</DateUtc></StartTime><FrequencyChanges><FrequencyChange><Frequency dt:dt="r8">3117968</Frequency><Timestamp dt:dt="r8">30003871140</Timestamp><Current dt:dt="r8">0</Current><DateUtc dt:dt="string">2021-06-15T13:45:43Z</DateUtc></FrequencyChange></FrequencyChanges></Clock>\n	qualiamotion pilot-1-2	84.909	1.0.0.519	N	1	right	-999999	18716	18716	0	VR	-60305220	Professional	2.0.10.356	2.0.10.356	06-15-2021	15/06/2021 13:45:43	15:45:43	female	2.0.10.252	-999999	18	17880	0	2										Vallist	Valutation				1	1	1							7						2	VERDE			N																																															ValenzaTrialproc				Valtrialproc	V_F2.png	FELICE				y	6	1	7
qualiamotion pilot	1	2	NO	<?xml version="1.0"?>\n<Clock xmlns:dt="urn:schemas-microsoft-com:datatypes"><Description dt:dt="string">E-Prime Primary Realtime Clock</Description><StartTime><Timestamp dt:dt="int">0</Timestamp><DateUtc dt:dt="string">2021-06-15T13:45:43Z</DateUtc></StartTime><FrequencyChanges><FrequencyChange><Frequency dt:dt="r8">3117968</Frequency><Timestamp dt:dt="r8">30003871140</Timestamp><Current dt:dt="r8">0</Current><DateUtc dt:dt="string">2021-06-15T13:45:43Z</DateUtc></FrequencyChange></FrequencyChanges></Clock>\n	qualiamotion pilot-1-2	84.909	1.0.0.519	N	1	right	-999999	18716	18716	0	VR	-60305220	Professional	2.0.10.356	2.0.10.356	06-15-2021	15/06/2021 13:45:43	15:45:43	female	2.0.10.252	-999999	18	17880	0	2										Vallist	Valutation				1	1	1							8						2	ROSSO			N																																															ValenzaTrialproc				Valtrialproc	R_N2.png	NEUTRO				e	4	1	8
qualiamotion pilot	1	2	NO	<?xml version="1.0"?>\n<Clock xmlns:dt="urn:schemas-microsoft-com:datatypes"><Description dt:dt="string">E-Prime Primary Realtime Clock</Description><StartTime><Timestamp dt:dt="int">0</Timestamp><DateUtc dt:dt="string">2021-06-15T13:45:43Z</DateUtc></StartTime><FrequencyChanges><FrequencyChange><Frequency dt:dt="r8">3117968</Frequency><Timestamp dt:dt="r8">30003871140</Timestamp><Current dt:dt="r8">0</Current><DateUtc dt:dt="string">2021-06-15T13:45:43Z</DateUtc></FrequencyChange></FrequencyChanges></Clock>\n	qualiamotion pilot-1-2	84.909	1.0.0.519	N	1	right	-999999	18716	18716	0	VR	-60305220	Professional	2.0.10.356	2.0.10.356	06-15-2021	15/06/2021 13:45:43	15:45:43	female	2.0.10.252	-999999	18	17880	0	2										Vallist	Valutation				1	1	1							9	2	4	1	1		2	ROSSO			N																																															ArousalTrialproc				Arousalproc	R_N2.png	NEUTRO							
qualiamotion pilot	1	2	NO	<?xml version="1.0"?>\n<Clock xmlns:dt="urn:schemas-microsoft-com:datatypes"><Description dt:dt="string">E-Prime Primary Realtime Clock</Description><StartTime><Timestamp dt:dt="int">0</Timestamp><DateUtc dt:dt="string">2021-06-15T13:45:43Z</DateUtc></StartTime><FrequencyChanges><FrequencyChange><Frequency dt:dt="r8">3117968</Frequency><Timestamp dt:dt="r8">30003871140</Timestamp><Current dt:dt="r8">0</Current><DateUtc dt:dt="string">2021-06-15T13:45:43Z</DateUtc></FrequencyChange></FrequencyChanges></Clock>\n	qualiamotion pilot-1-2	84.909	1.0.0.519	N	1	right	-999999	18716	18716	0	VR	-60305220	Professional	2.0.10.356	2.0.10.356	06-15-2021	15/06/2021 13:45:43	15:45:43	female	2.0.10.252	-999999	18	17880	0	2										Vallist	Valutation				1	1	1							10	5	2	1	2		2	ROSSO			N																																															ArousalTrialproc				Arousalproc	R_F2.png	FELICE							
qualiamotion pilot	1	2	NO	<?xml version="1.0"?>\n<Clock xmlns:dt="urn:schemas-microsoft-com:datatypes"><Description dt:dt="string">E-Prime Primary Realtime Clock</Description><StartTime><Timestamp dt:dt="int">0</Timestamp><DateUtc dt:dt="string">2021-06-15T13:45:43Z</DateUtc></StartTime><FrequencyChanges><FrequencyChange><Frequency dt:dt="r8">3117968</Frequency><Timestamp dt:dt="r8">30003871140</Timestamp><Current dt:dt="r8">0</Current><DateUtc dt:dt="string">2021-06-15T13:45:43Z</DateUtc></FrequencyChange></FrequencyChanges></Clock>\n	qualiamotion pilot-1-2	84.909	1.0.0.519	N	1	right	-999999	18716	18716	0	VR	-60305220	Professional	2.0.10.356	2.0.10.356	06-15-2021	15/06/2021 13:45:43	15:45:43	female	2.0.10.252	-999999	18	17880	0	2										Vallist	Valutation				1	1	1							11	5	6	1	3		2	VERDE			N																																															ArousalTrialproc				Arousalproc	V_F2.png	FELICE							
qualiamotion pilot	1	2	NO	<?xml version="1.0"?>\n<Clock xmlns:dt="urn:schemas-microsoft-com:datatypes"><Description dt:dt="string">E-Prime Primary Realtime Clock</Description><StartTime><Timestamp dt:dt="int">0</Timestamp><DateUtc dt:dt="string">2021-06-15T13:45:43Z</DateUtc></StartTime><FrequencyChanges><FrequencyChange><Frequency dt:dt="r8">3117968</Frequency><Timestamp dt:dt="r8">30003871140</Timestamp><Current dt:dt="r8">0</Current><DateUtc dt:dt="string">2021-06-15T13:45:43Z</DateUtc></FrequencyChange></FrequencyChanges></Clock>\n	qualiamotion pilot-1-2	84.909	1.0.0.519	N	1	right	-999999	18716	18716	0	VR	-60305220	Professional	2.0.10.356	2.0.10.356	06-15-2021	15/06/2021 13:45:43	15:45:43	female	2.0.10.252	-999999	18	17880	0	2										Vallist	Valutation				1	1	1							12	5	5	1	4		1	VERDE			N																																															ArousalTrialproc				Arousalproc	V_F1.png	FELICE							
qualiamotion pilot	1	2	NO	<?xml version="1.0"?>\n<Clock xmlns:dt="urn:schemas-microsoft-com:datatypes"><Description dt:dt="string">E-Prime Primary Realtime Clock</Description><StartTime><Timestamp dt:dt="int">0</Timestamp><DateUtc dt:dt="string">2021-06-15T13:45:43Z</DateUtc></StartTime><FrequencyChanges><FrequencyChange><Frequency dt:dt="r8">3117968</Frequency><Timestamp dt:dt="r8">30003871140</Timestamp><Current dt:dt="r8">0</Current><DateUtc dt:dt="string">2021-06-15T13:45:43Z</DateUtc></FrequencyChange></FrequencyChanges></Clock>\n	qualiamotion pilot-1-2	84.909	1.0.0.519	N	1	right	-999999	18716	18716	0	VR	-60305220	Professional	2.0.10.356	2.0.10.356	06-15-2021	15/06/2021 13:45:43	15:45:43	female	2.0.10.252	-999999	18	17880	0	2										Vallist	Valutation				1	1	1							13	1	8	1	5		2	VERDE			N																																															ArousalTrialproc				Arousalproc	V_N2.png	NEUTRO							
qualiamotion pilot	1	2	NO	<?xml version="1.0"?>\n<Clock xmlns:dt="urn:schemas-microsoft-com:datatypes"><Description dt:dt="string">E-Prime Primary Realtime Clock</Description><StartTime><Timestamp dt:dt="int">0</Timestamp><DateUtc dt:dt="string">2021-06-15T13:45:43Z</DateUtc></StartTime><FrequencyChanges><FrequencyChange><Frequency dt:dt="r8">3117968</Frequency><Timestamp dt:dt="r8">30003871140</Timestamp><Current dt:dt="r8">0</Current><DateUtc dt:dt="string">2021-06-15T13:45:43Z</DateUtc></FrequencyChange></FrequencyChanges></Clock>\n	qualiamotion pilot-1-2	84.909	1.0.0.519	N	1	right	-999999	18716	18716	0	VR	-60305220	Professional	2.0.10.356	2.0.10.356	06-15-2021	15/06/2021 13:45:43	15:45:43	female	2.0.10.252	-999999	18	17880	0	2										Vallist	Valutation				1	1	1							14	1	3	1	6		1	ROSSO			N																																															ArousalTrialproc				Arousalproc	R_N1.png	NEUTRO							
qualiamotion pilot	1	2	NO	<?xml version="1.0"?>\n<Clock xmlns:dt="urn:schemas-microsoft-com:datatypes"><Description dt:dt="string">E-Prime Primary Realtime Clock</Description><StartTime><Timestamp dt:dt="int">0</Timestamp><DateUtc dt:dt="string">2021-06-15T13:45:43Z</DateUtc></StartTime><FrequencyChanges><FrequencyChange><Frequency dt:dt="r8">3117968</Frequency><Timestamp dt:dt="r8">30003871140</Timestamp><Current dt:dt="r8">0</Current><DateUtc dt:dt="string">2021-06-15T13:45:43Z</DateUtc></FrequencyChange></FrequencyChanges></Clock>\n	qualiamotion pilot-1-2	84.909	1.0.0.519	N	1	right	-999999	18716	18716	0	VR	-60305220	Professional	2.0.10.356	2.0.10.356	06-15-2021	15/06/2021 13:45:43	15:45:43	female	2.0.10.252	-999999	18	17880	0	2										Vallist	Valutation				1	1	1							15	1	7	1	7		1	VERDE			N																																															ArousalTrialproc				Arousalproc	V_N1.png	NEUTRO							
qualiamotion pilot	1	2	NO	<?xml version="1.0"?>\n<Clock xmlns:dt="urn:schemas-microsoft-com:datatypes"><Description dt:dt="string">E-Prime Primary Realtime Clock</Description><StartTime><Timestamp dt:dt="int">0</Timestamp><DateUtc dt:dt="string">2021-06-15T13:45:43Z</DateUtc></StartTime><FrequencyChanges><FrequencyChange><Frequency dt:dt="r8">3117968</Frequency><Timestamp dt:dt="r8">30003871140</Timestamp><Current dt:dt="r8">0</Current><DateUtc dt:dt="string">2021-06-15T13:45:43Z</DateUtc></FrequencyChange></FrequencyChanges></Clock>\n	qualiamotion pilot-1-2	84.909	1.0.0.519	N	1	right	-999999	18716	18716	0	VR	-60305220	Professional	2.0.10.356	2.0.10.356	06-15-2021	15/06/2021 13:45:43	15:45:43	female	2.0.10.252	-999999	18	17880	0	2										Vallist	Valutation				1	1	1							16	6	1	1	8		1	ROSSO			N																																															ArousalTrialproc				Arousalproc	R_F1.png	FELICE							
qualiamotion pilot	10	1	YES	<?xml version="1.0"?>\n<Clock xmlns:dt="urn:schemas-microsoft-com:datatypes"><Description dt:dt="string">E-Prime Primary Realtime Clock</Description><StartTime><Timestamp dt:dt="int">0</Timestamp><DateUtc dt:dt="string">2021-06-25T10:52:36Z</DateUtc></StartTime><FrequencyChanges><FrequencyChange><Frequency dt:dt="r8">3117998</Frequency><Timestamp dt:dt="r8">22207555522</Timestamp><Current dt:dt="r8">0</Current><DateUtc dt:dt="string">2021-06-25T10:52:36Z</DateUtc></FrequencyChange></FrequencyChanges></Clock>\n	qualiamotion pilot-10-1	84.910	1.0.0.538	F	1	right	-999999	696205	696205	0	VR	733322277	Professional	2.0.10.356	2.0.10.356	06-25-2021	25/06/2021 10:52:36	12:52:36	female	2.0.10.252	-999999	10	695110	0	1	0		-999999	13	251355	0	1	17643	268998	TrainingProc	TrainingBlocklist	1	1	1										1						1	VERDE			F																																															trainingtriallist				Trialblocklist	V_F1.png	FELICE	5	1	1				
qualiamotion pilot	10	1	YES	<?xml version="1.0"?>\n<Clock xmlns:dt="urn:schemas-microsoft-com:datatypes"><Description dt:dt="string">E-Prime Primary Realtime Clock</Description><StartTime><Timestamp dt:dt="int">0</Timestamp><DateUtc dt:dt="string">2021-06-25T10:52:36Z</DateUtc></StartTime><FrequencyChanges><FrequencyChange><Frequency dt:dt="r8">3117998</Frequency><Timestamp dt:dt="r8">22207555522</Timestamp><Current dt:dt="r8">0</Current><DateUtc dt:dt="string">2021-06-25T10:52:36Z</DateUtc></FrequencyChange></FrequencyChanges></Clock>\n	qualiamotion pilot-10-1	84.910	1.0.0.538	F	1	right	-999999	696205	696205	0	VR	733322277	Professional	2.0.10.356	2.0.10.356	06-25-2021	25/06/2021 10:52:36	12:52:36	female	2.0.10.252	-999999	10	695110	0	1	0		-999999	13	251355	0	1	17643	268998	TrainingProc	TrainingBlocklist	1	1	1										2						1	VERDE			F																																															trainingtriallist				Trialblocklist	V_N1.png	NEUTRO	7	1	2				
qualiamotion pilot	10	1	YES	<?xml version="1.0"?>\n<Clock xmlns:dt="urn:schemas-microsoft-com:datatypes"><Description dt:dt="string">E-Prime Primary Realtime Clock</Description><StartTime><Timestamp dt:dt="int">0</Timestamp><DateUtc dt:dt="string">2021-06-25T10:52:36Z</DateUtc></StartTime><FrequencyChanges><FrequencyChange><Frequency dt:dt="r8">3117998</Frequency><Timestamp dt:dt="r8">22207555522</Timestamp><Current dt:dt="r8">0</Current><DateUtc dt:dt="string">2021-06-25T10:52:36Z</DateUtc></FrequencyChange></FrequencyChanges></Clock>\n	qualiamotion pilot-10-1	84.910	1.0.0.538	F	1	right	-999999	696205	696205	0	VR	733322277	Professional	2.0.10.356	2.0.10.356	06-25-2021	25/06/2021 10:52:36	12:52:36	female	2.0.10.252	-999999	10	695110	0	1	0		-999999	13	251355	0	1	17643	268998	TrainingProc	TrainingBlocklist	1	1	1										3						1	ROSSO			F																																															trainingtriallist				Trialblocklist	R_N1.png	NEUTRO	3	1	3				
qualiamotion pilot	10	1	YES	<?xml version="1.0"?>\n<Clock xmlns:dt="urn:schemas-microsoft-com:datatypes"><Description dt:dt="string">E-Prime Primary Realtime Clock</Description><StartTime><Timestamp dt:dt="int">0</Timestamp><DateUtc dt:dt="string">2021-06-25T10:52:36Z</DateUtc></StartTime><FrequencyChanges><FrequencyChange><Frequency dt:dt="r8">3117998</Frequency><Timestamp dt:dt="r8">22207555522</Timestamp><Current dt:dt="r8">0</Current><DateUtc dt:dt="string">2021-06-25T10:52:36Z</DateUtc></FrequencyChange></FrequencyChanges></Clock>\n	qualiamotion pilot-10-1	84.910	1.0.0.538	F	1	right	-999999	696205	696205	0	VR	733322277	Professional	2.0.10.356	2.0.10.356	06-25-2021	25/06/2021 10:52:36	12:52:36	female	2.0.10.252	-999999	10	695110	0	1	0		-999999	13	251355	0	1	17643	268998	TrainingProc	TrainingBlocklist	1	1	1										4						1	ROSSO			F																																															trainingtriallist				Trialblocklist	R_F1.png	FELICE	1	1	4				
qualiamotion pilot	10	1	YES	<?xml version="1.0"?>\n<Clock xmlns:dt="urn:schemas-microsoft-com:datatypes"><Description dt:dt="string">E-Prime Primary Realtime Clock</Description><StartTime><Timestamp dt:dt="int">0</Timestamp><DateUtc dt:dt="string">2021-06-25T10:52:36Z</DateUtc></StartTime><FrequencyChanges><FrequencyChange><Frequency dt:dt="r8">3117998</Frequency><Timestamp dt:dt="r8">22207555522</Timestamp><Current dt:dt="r8">0</Current><DateUtc dt:dt="string">2021-06-25T10:52:36Z</DateUtc></FrequencyChange></FrequencyChanges></Clock>\n	qualiamotion pilot-10-1	84.910	1.0.0.538	F	1	right	-999999	696205	696205	0	VR	733322277	Professional	2.0.10.356	2.0.10.356	06-25-2021	25/06/2021 10:52:36	12:52:36	female	2.0.10.252	-999999	10	695110	0	1	0		-999999	13	251355	0	1	17643	268998	TrainingProc	TrainingBlocklist	1	1	1										5						2	ROSSO			F																																															trainingtriallist				Trialblocklist	R_F2.png	FELICE	2	1	5				
qualiamotion pilot	10	1	YES	<?xml version="1.0"?>\n<Clock xmlns:dt="urn:schemas-microsoft-com:datatypes"><Description dt:dt="string">E-Prime Primary Realtime Clock</Description><StartTime><Timestamp dt:dt="int">0</Timestamp><DateUtc dt:dt="string">2021-06-25T10:52:36Z</DateUtc></StartTime><FrequencyChanges><FrequencyChange><Frequency dt:dt="r8">3117998</Frequency><Timestamp dt:dt="r8">22207555522</Timestamp><Current dt:dt="r8">0</Current><DateUtc dt:dt="string">2021-06-25T10:52:36Z</DateUtc></FrequencyChange></FrequencyChanges></Clock>\n	qualiamotion pilot-10-1	84.910	1.0.0.538	F	1	right	-999999	696205	696205	0	VR	733322277	Professional	2.0.10.356	2.0.10.356	06-25-2021	25/06/2021 10:52:36	12:52:36	female	2.0.10.252	-999999	10	695110	0	1	0		-999999	13	251355	0	1	17643	268998	TrainingProc	TrainingBlocklist	1	1	1										6						2	VERDE			F																																															trainingtriallist				Trialblocklist	V_N2.png	NEUTRO	8	1	6				
qualiamotion pilot	10	1	YES	<?xml version="1.0"?>\n<Clock xmlns:dt="urn:schemas-microsoft-com:datatypes"><Description dt:dt="string">E-Prime Primary Realtime Clock</Description><StartTime><Timestamp dt:dt="int">0</Timestamp><DateUtc dt:dt="string">2021-06-25T10:52:36Z</DateUtc></StartTime><FrequencyChanges><FrequencyChange><Frequency dt:dt="r8">3117998</Frequency><Timestamp dt:dt="r8">22207555522</Timestamp><Current dt:dt="r8">0</Current><DateUtc dt:dt="string">2021-06-25T10:52:36Z</DateUtc></FrequencyChange></FrequencyChanges></Clock>\n	qualiamotion pilot-10-1	84.910	1.0.0.538	F	1	right	-999999	696205	696205	0	VR	733322277	Professional	2.0.10.356	2.0.10.356	06-25-2021	25/06/2021 10:52:36	12:52:36	female	2.0.10.252	-999999	10	695110	0	1	0		-999999	13	251355	0	1	17643	268998	TrainingProc	TrainingBlocklist	1	1	1										7						2	VERDE			F																																															trainingtriallist				Trialblocklist	V_F2.png	FELICE	6	1	7				
qualiamotion pilot	10	1	YES	<?xml version="1.0"?>\n<Clock xmlns:dt="urn:schemas-microsoft-com:datatypes"><Description dt:dt="string">E-Prime Primary Realtime Clock</Description><StartTime><Timestamp dt:dt="int">0</Timestamp><DateUtc dt:dt="string">2021-06-25T10:52:36Z</DateUtc></StartTime><FrequencyChanges><FrequencyChange><Frequency dt:dt="r8">3117998</Frequency><Timestamp dt:dt="r8">22207555522</Timestamp><Current dt:dt="r8">0</Current><DateUtc dt:dt="string">2021-06-25T10:52:36Z</DateUtc></FrequencyChange></FrequencyChanges></Clock>\n	qualiamotion pilot-10-1	84.910	1.0.0.538	F	1	right	-999999	696205	696205	0	VR	733322277	Professional	2.0.10.356	2.0.10.356	06-25-2021	25/06/2021 10:52:36	12:52:36	female	2.0.10.252	-999999	10	695110	0	1	0		-999999	13	251355	0	1	17643	268998	TrainingProc	TrainingBlocklist	1	1	1										8						2	ROSSO			F																																															trainingtriallist				Trialblocklist	R_N2.png	NEUTRO	4	1	8				
qualiamotion pilot	10	1	YES	<?xml version="1.0"?>\n<Clock xmlns:dt="urn:schemas-microsoft-com:datatypes"><Description dt:dt="string">E-Prime Primary Realtime Clock</Description><StartTime><Timestamp dt:dt="int">0</Timestamp><DateUtc dt:dt="string">2021-06-25T10:52:36Z</DateUtc></StartTime><FrequencyChanges><FrequencyChange><Frequency dt:dt="r8">3117998</Frequency><Timestamp dt:dt="r8">22207555522</Timestamp><Current dt:dt="r8">0</Current><DateUtc dt:dt="string">2021-06-25T10:52:36Z</DateUtc></FrequencyChange></FrequencyChanges></Clock>\n	qualiamotion pilot-10-1	84.910	1.0.0.538	F	1	right	-999999	696205	696205	0	VR	733322277	Professional	2.0.10.356	2.0.10.356	06-25-2021	25/06/2021 10:52:36	12:52:36	female	2.0.10.252	-999999	10	695110	0	1	0		-999999	13	251355	0	1	17643	268998	TrainingProc	TrainingBlocklist	1	1	1										9										F																																															Triningrivalry	1	1	1	Provalist	RV_NF_1.png								
qualiamotion pilot	10	1	YES	<?xml version="1.0"?>\n<Clock xmlns:dt="urn:schemas-microsoft-com:datatypes"><Description dt:dt="string">E-Prime Primary Realtime Clock</Description><StartTime><Timestamp dt:dt="int">0</Timestamp><DateUtc dt:dt="string">2021-06-25T10:52:36Z</DateUtc></StartTime><FrequencyChanges><FrequencyChange><Frequency dt:dt="r8">3117998</Frequency><Timestamp dt:dt="r8">22207555522</Timestamp><Current dt:dt="r8">0</Current><DateUtc dt:dt="string">2021-06-25T10:52:36Z</DateUtc></FrequencyChange></FrequencyChanges></Clock>\n	qualiamotion pilot-10-1	84.910	1.0.0.538	F	1	right	-999999	696205	696205	0	VR	733322277	Professional	2.0.10.356	2.0.10.356	06-25-2021	25/06/2021 10:52:36	12:52:36	female	2.0.10.252	-999999	10	695110	0	1	0		-999999	13	251355	0	1	17643	268998	TrainingProc	TrainingBlocklist	1	1	1										10										F																																															Triningrivalry	2	1	2	Provalist	RV_NF_2.png								
qualiamotion pilot	10	1	YES	<?xml version="1.0"?>\n<Clock xmlns:dt="urn:schemas-microsoft-com:datatypes"><Description dt:dt="string">E-Prime Primary Realtime Clock</Description><StartTime><Timestamp dt:dt="int">0</Timestamp><DateUtc dt:dt="string">2021-06-25T10:52:36Z</DateUtc></StartTime><FrequencyChanges><FrequencyChange><Frequency dt:dt="r8">3117998</Frequency><Timestamp dt:dt="r8">22207555522</Timestamp><Current dt:dt="r8">0</Current><DateUtc dt:dt="string">2021-06-25T10:52:36Z</DateUtc></FrequencyChange></FrequencyChanges></Clock>\n	qualiamotion pilot-10-1	84.910	1.0.0.538	F	1	right	-999999	696205	696205	0	VR	733322277	Professional	2.0.10.356	2.0.10.356	06-25-2021	25/06/2021 10:52:36	12:52:36	female	2.0.10.252	-999999	10	695110	0	2										blockproc	XPBlocklist							1	1	1				1					FELICE	1		VERDE	ROSSO	2	1	1																					m	1752			n	2688	b	3472	n	6320	m	7232	b	10856							NEUTRO				FeliceNeutroProc				FeliceNeutro	RV_NF_1.png								
qualiamotion pilot	10	1	YES	<?xml version="1.0"?>\n<Clock xmlns:dt="urn:schemas-microsoft-com:datatypes"><Description dt:dt="string">E-Prime Primary Realtime Clock</Description><StartTime><Timestamp dt:dt="int">0</Timestamp><DateUtc dt:dt="string">2021-06-25T10:52:36Z</DateUtc></StartTime><FrequencyChanges><FrequencyChange><Frequency dt:dt="r8">3117998</Frequency><Timestamp dt:dt="r8">22207555522</Timestamp><Current dt:dt="r8">0</Current><DateUtc dt:dt="string">2021-06-25T10:52:36Z</DateUtc></FrequencyChange></FrequencyChanges></Clock>\n	qualiamotion pilot-10-1	84.910	1.0.0.538	F	1	right	-999999	696205	696205	0	VR	733322277	Professional	2.0.10.356	2.0.10.356	06-25-2021	25/06/2021 10:52:36	12:52:36	female	2.0.10.252	-999999	10	695110	0	2										blockproc	XPBlocklist							1	1	1				2					FELICE	1		ROSSO	VERDE	1	1	2																					b	950			n	7205															NEUTRO				FeliceNeutroProc				FeliceNeutro	VR_NF_1.png								
qualiamotion pilot	10	1	YES	<?xml version="1.0"?>\n<Clock xmlns:dt="urn:schemas-microsoft-com:datatypes"><Description dt:dt="string">E-Prime Primary Realtime Clock</Description><StartTime><Timestamp dt:dt="int">0</Timestamp><DateUtc dt:dt="string">2021-06-25T10:52:36Z</DateUtc></StartTime><FrequencyChanges><FrequencyChange><Frequency dt:dt="r8">3117998</Frequency><Timestamp dt:dt="r8">22207555522</Timestamp><Current dt:dt="r8">0</Current><DateUtc dt:dt="string">2021-06-25T10:52:36Z</DateUtc></FrequencyChange></FrequencyChanges></Clock>\n	qualiamotion pilot-10-1	84.910	1.0.0.538	F	1	right	-999999	696205	696205	0	VR	733322277	Professional	2.0.10.356	2.0.10.356	06-25-2021	25/06/2021 10:52:36	12:52:36	female	2.0.10.252	-999999	10	695110	0	2										blockproc	XPBlocklist							1	1	1				3					FELICE	2		ROSSO	VERDE	3	1	3																					b	980			m	9076	b	12188													NEUTRO				FeliceNeutroProc				FeliceNeutro	VR_NF_2.png								
qualiamotion pilot	10	1	YES	<?xml version="1.0"?>\n<Clock xmlns:dt="urn:schemas-microsoft-com:datatypes"><Description dt:dt="string">E-Prime Primary Realtime Clock</Description><StartTime><Timestamp dt:dt="int">0</Timestamp><DateUtc dt:dt="string">2021-06-25T10:52:36Z</DateUtc></StartTime><FrequencyChanges><FrequencyChange><Frequency dt:dt="r8">3117998</Frequency><Timestamp dt:dt="r8">22207555522</Timestamp><Current dt:dt="r8">0</Current><DateUtc dt:dt="string">2021-06-25T10:52:36Z</DateUtc></FrequencyChange></FrequencyChanges></Clock>\n	qualiamotion pilot-10-1	84.910	1.0.0.538	F	1	right	-999999	696205	696205	0	VR	733322277	Professional	2.0.10.356	2.0.10.356	06-25-2021	25/06/2021 10:52:36	12:52:36	female	2.0.10.252	-999999	10	695110	0	2										blockproc	XPBlocklist							1	1	1				4					FELICE	2		VERDE	ROSSO	4	1	4																					b	1082			m	7674	b	10354	n	12322											NEUTRO				FeliceNeutroProc				FeliceNeutro	RV_NF_2.png								
qualiamotion pilot	10	1	YES	<?xml version="1.0"?>\n<Clock xmlns:dt="urn:schemas-microsoft-com:datatypes"><Description dt:dt="string">E-Prime Primary Realtime Clock</Description><StartTime><Timestamp dt:dt="int">0</Timestamp><DateUtc dt:dt="string">2021-06-25T10:52:36Z</DateUtc></StartTime><FrequencyChanges><FrequencyChange><Frequency dt:dt="r8">3117998</Frequency><Timestamp dt:dt="r8">22207555522</Timestamp><Current dt:dt="r8">0</Current><DateUtc dt:dt="string">2021-06-25T10:52:36Z</DateUtc></FrequencyChange></FrequencyChanges></Clock>\n	qualiamotion pilot-10-1	84.910	1.0.0.538	F	1	right	-999999	696205	696205	0	VR	733322277	Professional	2.0.10.356	2.0.10.356	06-25-2021	25/06/2021 10:52:36	12:52:36	female	2.0.10.252	-999999	10	695110	0	2										blockproc	XPBlocklist							1	1	1				5					FELICE	2		ROSSO	VERDE	3	2	5																					b	1376			n	13847															NEUTRO				FeliceNeutroProc				FeliceNeutro	VR_NF_2.png								
qualiamotion pilot	10	1	YES	<?xml version="1.0"?>\n<Clock xmlns:dt="urn:schemas-microsoft-com:datatypes"><Description dt:dt="string">E-Prime Primary Realtime Clock</Description><StartTime><Timestamp dt:dt="int">0</Timestamp><DateUtc dt:dt="string">2021-06-25T10:52:36Z</DateUtc></StartTime><FrequencyChanges><FrequencyChange><Frequency dt:dt="r8">3117998</Frequency><Timestamp dt:dt="r8">22207555522</Timestamp><Current dt:dt="r8">0</Current><DateUtc dt:dt="string">2021-06-25T10:52:36Z</DateUtc></FrequencyChange></FrequencyChanges></Clock>\n	qualiamotion pilot-10-1	84.910	1.0.0.538	F	1	right	-999999	696205	696205	0	VR	733322277	Professional	2.0.10.356	2.0.10.356	06-25-2021	25/06/2021 10:52:36	12:52:36	female	2.0.10.252	-999999	10	695110	0	2										blockproc	XPBlocklist							1	1	1				6					FELICE	1		ROSSO	VERDE	1	2	6																					b	846																			NEUTRO				FeliceNeutroProc				FeliceNeutro	VR_NF_1.png								
qualiamotion pilot	10	1	YES	<?xml version="1.0"?>\n<Clock xmlns:dt="urn:schemas-microsoft-com:datatypes"><Description dt:dt="string">E-Prime Primary Realtime Clock</Description><StartTime><Timestamp dt:dt="int">0</Timestamp><DateUtc dt:dt="string">2021-06-25T10:52:36Z</DateUtc></StartTime><FrequencyChanges><FrequencyChange><Frequency dt:dt="r8">3117998</Frequency><Timestamp dt:dt="r8">22207555522</Timestamp><Current dt:dt="r8">0</Current><DateUtc dt:dt="string">2021-06-25T10:52:36Z</DateUtc></FrequencyChange></FrequencyChanges></Clock>\n	qualiamotion pilot-10-1	84.910	1.0.0.538	F	1	right	-999999	696205	696205	0	VR	733322277	Professional	2.0.10.356	2.0.10.356	06-25-2021	25/06/2021 10:52:36	12:52:36	female	2.0.10.252	-999999	10	695110	0	2										blockproc	XPBlocklist							1	1	1				7					FELICE	2		VERDE	ROSSO	4	2	7																					b	1149			n	6292	b	8716													NEUTRO				FeliceNeutroProc				FeliceNeutro	RV_NF_2.png								
qualiamotion pilot	10	1	YES	<?xml version="1.0"?>\n<Clock xmlns:dt="urn:schemas-microsoft-com:datatypes"><Description dt:dt="string">E-Prime Primary Realtime Clock</Description><StartTime><Timestamp dt:dt="int">0</Timestamp><DateUtc dt:dt="string">2021-06-25T10:52:36Z</DateUtc></StartTime><FrequencyChanges><FrequencyChange><Frequency dt:dt="r8">3117998</Frequency><Timestamp dt:dt="r8">22207555522</Timestamp><Current dt:dt="r8">0</Current><DateUtc dt:dt="string">2021-06-25T10:52:36Z</DateUtc></FrequencyChange></FrequencyChanges></Clock>\n	qualiamotion pilot-10-1	84.910	1.0.0.538	F	1	right	-999999	696205	696205	0	VR	733322277	Professional	2.0.10.356	2.0.10.356	06-25-2021	25/06/2021 10:52:36	12:52:36	female	2.0.10.252	-999999	10	695110	0	2										blockproc	XPBlocklist							1	1	1				8					FELICE	1		VERDE	ROSSO	2	2	8																					n	1290			m	2066	b	6178	m	7842											NEUTRO				FeliceNeutroProc				FeliceNeutro	RV_NF_1.png								
qualiamotion pilot	10	1	YES	<?xml version="1.0"?>\n<Clock xmlns:dt="urn:schemas-microsoft-com:datatypes"><Description dt:dt="string">E-Prime Primary Realtime Clock</Description><StartTime><Timestamp dt:dt="int">0</Timestamp><DateUtc dt:dt="string">2021-06-25T10:52:36Z</DateUtc></StartTime><FrequencyChanges><FrequencyChange><Frequency dt:dt="r8">3117998</Frequency><Timestamp dt:dt="r8">22207555522</Timestamp><Current dt:dt="r8">0</Current><DateUtc dt:dt="string">2021-06-25T10:52:36Z</DateUtc></FrequencyChange></FrequencyChanges></Clock>\n	qualiamotion pilot-10-1	84.910	1.0.0.538	F	1	right	-999999	696205	696205	0	VR	733322277	Professional	2.0.10.356	2.0.10.356	06-25-2021	25/06/2021 10:52:36	12:52:36	female	2.0.10.252	-999999	10	695110	0	2										blockproc	XPBlocklist							1	1	1				9					NEUTRO	1		VERDE	ROSSO	F																							m	1081																			FELICE	1	1	1	NeutroFeliceProc				NeutroFelice	VR_NF_1.png								
qualiamotion pilot	10	1	YES	<?xml version="1.0"?>\n<Clock xmlns:dt="urn:schemas-microsoft-com:datatypes"><Description dt:dt="string">E-Prime Primary Realtime Clock</Description><StartTime><Timestamp dt:dt="int">0</Timestamp><DateUtc dt:dt="string">2021-06-25T10:52:36Z</DateUtc></StartTime><FrequencyChanges><FrequencyChange><Frequency dt:dt="r8">3117998</Frequency><Timestamp dt:dt="r8">22207555522</Timestamp><Current dt:dt="r8">0</Current><DateUtc dt:dt="string">2021-06-25T10:52:36Z</DateUtc></FrequencyChange></FrequencyChanges></Clock>\n	qualiamotion pilot-10-1	84.910	1.0.0.538	F	1	right	-999999	696205	696205	0	VR	733322277	Professional	2.0.10.356	2.0.10.356	06-25-2021	25/06/2021 10:52:36	12:52:36	female	2.0.10.252	-999999	10	695110	0	2										blockproc	XPBlocklist							1	1	1				10					NEUTRO	1		ROSSO	VERDE	F																							b	967			n	1831	m	2447	b	6295	n	11495	m	12295	b	13319					FELICE	2	1	2	NeutroFeliceProc				NeutroFelice	RV_NF_1.png								
qualiamotion pilot	10	1	YES	<?xml version="1.0"?>\n<Clock xmlns:dt="urn:schemas-microsoft-com:datatypes"><Description dt:dt="string">E-Prime Primary Realtime Clock</Description><StartTime><Timestamp dt:dt="int">0</Timestamp><DateUtc dt:dt="string">2021-06-25T10:52:36Z</DateUtc></StartTime><FrequencyChanges><FrequencyChange><Frequency dt:dt="r8">3117998</Frequency><Timestamp dt:dt="r8">22207555522</Timestamp><Current dt:dt="r8">0</Current><DateUtc dt:dt="string">2021-06-25T10:52:36Z</DateUtc></FrequencyChange></FrequencyChanges></Clock>\n	qualiamotion pilot-10-1	84.910	1.0.0.538	F	1	right	-999999	696205	696205	0	VR	733322277	Professional	2.0.10.356	2.0.10.356	06-25-2021	25/06/2021 10:52:36	12:52:36	female	2.0.10.252	-999999	10	695110	0	2										blockproc	XPBlocklist							1	1	1				11					NEUTRO	2		VERDE	ROSSO	F																							m	877																			FELICE	3	1	3	NeutroFeliceProc				NeutroFelice	VR_NF_2.png								
qualiamotion pilot	10	1	YES	<?xml version="1.0"?>\n<Clock xmlns:dt="urn:schemas-microsoft-com:datatypes"><Description dt:dt="string">E-Prime Primary Realtime Clock</Description><StartTime><Timestamp dt:dt="int">0</Timestamp><DateUtc dt:dt="string">2021-06-25T10:52:36Z</DateUtc></StartTime><FrequencyChanges><FrequencyChange><Frequency dt:dt="r8">3117998</Frequency><Timestamp dt:dt="r8">22207555522</Timestamp><Current dt:dt="r8">0</Current><DateUtc dt:dt="string">2021-06-25T10:52:36Z</DateUtc></FrequencyChange></FrequencyChanges></Clock>\n	qualiamotion pilot-10-1	84.910	1.0.0.538	F	1	right	-999999	696205	696205	0	VR	733322277	Professional	2.0.10.356	2.0.10.356	06-25-2021	25/06/2021 10:52:36	12:52:36	female	2.0.10.252	-999999	10	695110	0	2										blockproc	XPBlocklist							1	1	1				12					NEUTRO	2		ROSSO	VERDE	F																							m	851			m	14106															FELICE	4	1	4	NeutroFeliceProc				NeutroFelice	RV_NF_2.png								
qualiamotion pilot	10	1	YES	<?xml version="1.0"?>\n<Clock xmlns:dt="urn:schemas-microsoft-com:datatypes"><Description dt:dt="string">E-Prime Primary Realtime Clock</Description><StartTime><Timestamp dt:dt="int">0</Timestamp><DateUtc dt:dt="string">2021-06-25T10:52:36Z</DateUtc></StartTime><FrequencyChanges><FrequencyChange><Frequency dt:dt="r8">3117998</Frequency><Timestamp dt:dt="r8">22207555522</Timestamp><Current dt:dt="r8">0</Current><DateUtc dt:dt="string">2021-06-25T10:52:36Z</DateUtc></FrequencyChange></FrequencyChanges></Clock>\n	qualiamotion pilot-10-1	84.910	1.0.0.538	F	1	right	-999999	696205	696205	0	VR	733322277	Professional	2.0.10.356	2.0.10.356	06-25-2021	25/06/2021 10:52:36	12:52:36	female	2.0.10.252	-999999	10	695110	0	2										blockproc	XPBlocklist							1	1	1				13					NEUTRO	1		VERDE	ROSSO	F																							m	1057																			FELICE	1	2	5	NeutroFeliceProc				NeutroFelice	VR_NF_1.png								
qualiamotion pilot	10	1	YES	<?xml version="1.0"?>\n<Clock xmlns:dt="urn:schemas-microsoft-com:datatypes"><Description dt:dt="string">E-Prime Primary Realtime Clock</Description><StartTime><Timestamp dt:dt="int">0</Timestamp><DateUtc dt:dt="string">2021-06-25T10:52:36Z</DateUtc></StartTime><FrequencyChanges><FrequencyChange><Frequency dt:dt="r8">3117998</Frequency><Timestamp dt:dt="r8">22207555522</Timestamp><Current dt:dt="r8">0</Current><DateUtc dt:dt="string">2021-06-25T10:52:36Z</DateUtc></FrequencyChange></FrequencyChanges></Clock>\n	qualiamotion pilot-10-1	84.910	1.0.0.538	F	1	right	-999999	696205	696205	0	VR	733322277	Professional	2.0.10.356	2.0.10.356	06-25-2021	25/06/2021 10:52:36	12:52:36	female	2.0.10.252	-999999	10	695110	0	2										blockproc	XPBlocklist							1	1	1				14					NEUTRO	1		ROSSO	VERDE	F																							m	1615			b	6118	m	10742													FELICE	2	2	6	NeutroFeliceProc				NeutroFelice	RV_NF_1.png								
qualiamotion pilot	10	1	YES	<?xml version="1.0"?>\n<Clock xmlns:dt="urn:schemas-microsoft-com:datatypes"><Description dt:dt="string">E-Prime Primary Realtime Clock</Description><StartTime><Timestamp dt:dt="int">0</Timestamp><DateUtc dt:dt="string">2021-06-25T10:52:36Z</DateUtc></StartTime><FrequencyChanges><FrequencyChange><Frequency dt:dt="r8">3117998</Frequency><Timestamp dt:dt="r8">22207555522</Timestamp><Current dt:dt="r8">0</Current><DateUtc dt:dt="string">2021-06-25T10:52:36Z</DateUtc></FrequencyChange></FrequencyChanges></Clock>\n	qualiamotion pilot-10-1	84.910	1.0.0.538	F	1	right	-999999	696205	696205	0	VR	733322277	Professional	2.0.10.356	2.0.10.356	06-25-2021	25/06/2021 10:52:36	12:52:36	female	2.0.10.252	-999999	10	695110	0	2										blockproc	XPBlocklist							1	1	1				15					NEUTRO	2		VERDE	ROSSO	F																							m	1341																			FELICE	3	2	7	NeutroFeliceProc				NeutroFelice	VR_NF_2.png								
qualiamotion pilot	10	1	YES	<?xml version="1.0"?>\n<Clock xmlns:dt="urn:schemas-microsoft-com:datatypes"><Description dt:dt="string">E-Prime Primary Realtime Clock</Description><StartTime><Timestamp dt:dt="int">0</Timestamp><DateUtc dt:dt="string">2021-06-25T10:52:36Z</DateUtc></StartTime><FrequencyChanges><FrequencyChange><Frequency dt:dt="r8">3117998</Frequency><Timestamp dt:dt="r8">22207555522</Timestamp><Current dt:dt="r8">0</Current><DateUtc dt:dt="string">2021-06-25T10:52:36Z</DateUtc></FrequencyChange></FrequencyChanges></Clock>\n	qualiamotion pilot-10-1	84.910	1.0.0.538	F	1	right	-999999	696205	696205	0	VR	733322277	Professional	2.0.10.356	2.0.10.356	06-25-2021	25/06/2021 10:52:36	12:52:36	female	2.0.10.252	-999999	10	695110	0	2										blockproc	XPBlocklist							1	1	1				16					NEUTRO	2		ROSSO	VERDE	F																							n	1699			m	2219															FELICE	4	2	8	NeutroFeliceProc				NeutroFelice	RV_NF_2.png								
qualiamotion pilot	10	1	YES	<?xml version="1.0"?>\n<Clock xmlns:dt="urn:schemas-microsoft-com:datatypes"><Description dt:dt="string">E-Prime Primary Realtime Clock</Description><StartTime><Timestamp dt:dt="int">0</Timestamp><DateUtc dt:dt="string">2021-06-25T10:52:36Z</DateUtc></StartTime><FrequencyChanges><FrequencyChange><Frequency dt:dt="r8">3117998</Frequency><Timestamp dt:dt="r8">22207555522</Timestamp><Current dt:dt="r8">0</Current><DateUtc dt:dt="string">2021-06-25T10:52:36Z</DateUtc></FrequencyChange></FrequencyChanges></Clock>\n	qualiamotion pilot-10-1	84.910	1.0.0.538	F	1	right	-999999	696205	696205	0	VR	733322277	Professional	2.0.10.356	2.0.10.356	06-25-2021	25/06/2021 10:52:36	12:52:36	female	2.0.10.252	-999999	10	695110	0	3										Vallist	Valutation				1	1	1							1						1	VERDE			F																																															ValenzaTrialproc				Valtrialproc	V_F1.png	FELICE				u	5	1	1
qualiamotion pilot	10	1	YES	<?xml version="1.0"?>\n<Clock xmlns:dt="urn:schemas-microsoft-com:datatypes"><Description dt:dt="string">E-Prime Primary Realtime Clock</Description><StartTime><Timestamp dt:dt="int">0</Timestamp><DateUtc dt:dt="string">2021-06-25T10:52:36Z</DateUtc></StartTime><FrequencyChanges><FrequencyChange><Frequency dt:dt="r8">3117998</Frequency><Timestamp dt:dt="r8">22207555522</Timestamp><Current dt:dt="r8">0</Current><DateUtc dt:dt="string">2021-06-25T10:52:36Z</DateUtc></FrequencyChange></FrequencyChanges></Clock>\n	qualiamotion pilot-10-1	84.910	1.0.0.538	F	1	right	-999999	696205	696205	0	VR	733322277	Professional	2.0.10.356	2.0.10.356	06-25-2021	25/06/2021 10:52:36	12:52:36	female	2.0.10.252	-999999	10	695110	0	3										Vallist	Valutation				1	1	1							2						2	VERDE			F																																															ValenzaTrialproc				Valtrialproc	V_F2.png	FELICE				u	6	1	2
qualiamotion pilot	10	1	YES	<?xml version="1.0"?>\n<Clock xmlns:dt="urn:schemas-microsoft-com:datatypes"><Description dt:dt="string">E-Prime Primary Realtime Clock</Description><StartTime><Timestamp dt:dt="int">0</Timestamp><DateUtc dt:dt="string">2021-06-25T10:52:36Z</DateUtc></StartTime><FrequencyChanges><FrequencyChange><Frequency dt:dt="r8">3117998</Frequency><Timestamp dt:dt="r8">22207555522</Timestamp><Current dt:dt="r8">0</Current><DateUtc dt:dt="string">2021-06-25T10:52:36Z</DateUtc></FrequencyChange></FrequencyChanges></Clock>\n	qualiamotion pilot-10-1	84.910	1.0.0.538	F	1	right	-999999	696205	696205	0	VR	733322277	Professional	2.0.10.356	2.0.10.356	06-25-2021	25/06/2021 10:52:36	12:52:36	female	2.0.10.252	-999999	10	695110	0	3										Vallist	Valutation				1	1	1							3						2	ROSSO			F																																															ValenzaTrialproc				Valtrialproc	R_N2.png	NEUTRO				r	4	1	3
qualiamotion pilot	10	1	YES	<?xml version="1.0"?>\n<Clock xmlns:dt="urn:schemas-microsoft-com:datatypes"><Description dt:dt="string">E-Prime Primary Realtime Clock</Description><StartTime><Timestamp dt:dt="int">0</Timestamp><DateUtc dt:dt="string">2021-06-25T10:52:36Z</DateUtc></StartTime><FrequencyChanges><FrequencyChange><Frequency dt:dt="r8">3117998</Frequency><Timestamp dt:dt="r8">22207555522</Timestamp><Current dt:dt="r8">0</Current><DateUtc dt:dt="string">2021-06-25T10:52:36Z</DateUtc></FrequencyChange></FrequencyChanges></Clock>\n	qualiamotion pilot-10-1	84.910	1.0.0.538	F	1	right	-999999	696205	696205	0	VR	733322277	Professional	2.0.10.356	2.0.10.356	06-25-2021	25/06/2021 10:52:36	12:52:36	female	2.0.10.252	-999999	10	695110	0	3										Vallist	Valutation				1	1	1							4						2	VERDE			F																																															ValenzaTrialproc				Valtrialproc	V_N2.png	NEUTRO				r	8	1	4
qualiamotion pilot	10	1	YES	<?xml version="1.0"?>\n<Clock xmlns:dt="urn:schemas-microsoft-com:datatypes"><Description dt:dt="string">E-Prime Primary Realtime Clock</Description><StartTime><Timestamp dt:dt="int">0</Timestamp><DateUtc dt:dt="string">2021-06-25T10:52:36Z</DateUtc></StartTime><FrequencyChanges><FrequencyChange><Frequency dt:dt="r8">3117998</Frequency><Timestamp dt:dt="r8">22207555522</Timestamp><Current dt:dt="r8">0</Current><DateUtc dt:dt="string">2021-06-25T10:52:36Z</DateUtc></FrequencyChange></FrequencyChanges></Clock>\n	qualiamotion pilot-10-1	84.910	1.0.0.538	F	1	right	-999999	696205	696205	0	VR	733322277	Professional	2.0.10.356	2.0.10.356	06-25-2021	25/06/2021 10:52:36	12:52:36	female	2.0.10.252	-999999	10	695110	0	3										Vallist	Valutation				1	1	1							5						1	ROSSO			F																																															ValenzaTrialproc				Valtrialproc	R_F1.png	FELICE				u	1	1	5
